DOMAIN,VARNUM,VARIABLE,TYPE,LENGTH,LABEL,KEYSEQUENCE,SIGNIFICANTDIGITS,ORIGIN,COMMENTOID,DISPLAYFORMAT,COMPUTATIONMETHODOID,CODELISTNAME,MANDATORY,SEQUENCE,MACRO,INTERVAR
ADSL,1,STUDYID,text,9,Study Identifier,1,,DM.STUDYID,ADSLCOM.STUDYID,,ADSLCMP.STUDYID,,Yes,1,,
ADSL,2,USUBJID,text,18,Unique Subject Identifier,2,,DM.USUBJID,ADSLCOM.USUBJID,,ADSLCMP.USUBJID,,Yes,1,,
ADSL,3,SUBJID,text,7,Subject Identifier for the Study,,,DM.SUBJID,ADSLCOM.SUBJID,,ADSLCMP.SUBJID,,Yes,1,,
ADSL,4,SITEID,text,7,Study Site Identifier,,,DM.SITEID,ADSLCOM.SITEID,,ADSLCMP.SITEID,,Yes,1,,
ADSL,5,SITEGR1,text,20,Pooled Site Group 1,,,,ADSLCOM.SITEGR1,,ADSLCMP.SITEGR1,,No,,,
ADSL,6,SITEGR1N,integer,8,Pooled Site Group 1 (N),,,,ADSLCOM.SITEGR1N,,ADSLCMP.SITEGR1N,,No,,,
ADSL,7,REGION1,text,20,Geographic Region 1,,,,ADSLCOM.REGION1,,ADSLCMP.REGION1,,Yes,2,,
ADSL,8,REGION1N,integer,8,Geographic Region 1 (N),,,,ADSLCOM.REGION1N,,ADSLCMP.REGION1N,,Yes,3,,
ADSL,9,AGE,integer,8,Age,,,DM.AGE,ADSLCOM.AGE,,ADSLCMP.AGE,,Yes,1,,
ADSL,10,AGEU,text,5,Age Units,,,DM.AGEU,ADSLCOM.AGEU,,ADSLCMP.AGEU,AGEU,Yes,1,,
ADSL,11,AGEGR1,text,40,Pooled Age Group 1,,,Derived,ADSLCOM.AGEGR1,,ADSLCMP.AGEGR1,AGEGR1,Yes,2,,
ADSL,12,AGEGR1N,integer,8,Pooled Age Group 1 (N),,,Derived,ADSLCOM.AGEGR1N,,ADSLCMP.AGEGR1N,AGEGR1N,Yes,3,,
ADSL,13,SEX,text,1,Sex,,,DM.SEX,ADSLCOM.SEX,,ADSLCMP.SEX,SEX,Yes,1,,
ADSL,14,RACE,text,39,Race,,,DM.RACE,ADSLCOM.RACE,,ADSLCMP.RACE,RACE,Yes,1,,
ADSL,15,RACEGR1,text,40,Pooled Race Group 1,,,,ADSLCOM.RACEGR1,,ADSLCMP.RACEGR1,,Yes,2,,
ADSL,16,RACEGR1N,integer,8,Pooled Race Group 1 (N),,,,ADSLCOM.RACEGR1N,,ADSLCMP.RACEGR1N,,Yes,3,,
ADSL,17,FASFL,text,1,Full Analysis Set Population Flag,,,,ADSLCOM.FASFL,,ADSLCMP.FASFL,YN,No,,,
ADSL,18,SAFFL,text,1,Safety Population Flag,,,,ADSLCOM.SAFFL,,ADSLCMP.SAFFL,YN,Yes,2,,
ADSL,19,ITTFL,text,1,Intent-To-Treat Population Flag,,,,ADSLCOM.ITTFL,,ADSLCMP.ITTFL,YN,Yes,2,,
ADSL,20,PPROTFL,text,1,Per-Protocol Population Flag,,,,ADSLCOM.PPROTFL,,ADSLCMP.PPROTFL,YN,No,2,,
ADSL,21,COMPLFL,text,1,Completers Population Flag,,,,ADSLCOM.COMPLFL,,ADSLCMP.COMPLFL,YN,No,2,,
ADSL,22,RANDFL,text,1,Randomized Population Flag,,,,ADSLCOM.RANDFL,,ADSLCMP.RANDFL,YN,Yes,2,,
ADSL,23,DTHFL,text,1,Death of Subject Flag,,,,ADSLCOM.DTHFL,,ADSLCMP.DTHFL,Y,Yes,2,,
ADSL,24,ENRLFL,text,1,Enrolled Population Flag,,,,ADSLCOM.ENRLFL,,ADSLCMP.ENRLFL,YN,No,2,,
ADSL,25,EXPFL,text,1,Exposed to Study Treatment Flag,,,,ADSLCOM.EXPFL,,ADSLCMP.EXPFL,YN,Yes,2,,
ADSL,26,EPPFL,text,1,Evaluable Patient Population Flag,,,,ADSLCOM.EPPFL,,ADSLCMP.EPPFL,YN,Yes,2,,
ADSL,27,CBPFL,text,1,Clinical Benefit Population Flag,,,,ADSLCOM.CBPFL,,ADSLCMP.CBPFL,YN,Yes,3,,Y
ADSL,28,ARM,text,100,Description of Planned Arm,,,DM.ARM,ADSLCOM.ARM,,ADSLCMP.ARM,,Yes,1,,
ADSL,29,ACTARM,text,100,Description of Actual Arm,,,DM.ACTARM,ADSLCOM.ACTARM,,ADSLCMP.ACTARM,,Yes,1,,
ADSL,30,TRT01P,text,40,Planned Treatment for Period 01,,,DM.ARM,ADSLCOM.TRT01P,,ADSLCMP.TRT01P,,Yes,1,,
ADSL,31,TRT01PN,integer,8,Planned Treatment for Period 01 (N),,,Derived,ADSLCOM.TRT01PN,,ADSLCMP.TRT01PN,,Yes,2,,
ADSL,32,TRT02P,text,40,Planned Treatment for Period 01,,,DM.ARM,ADSLCOM.TRT02P,,ADSLCMP.TRT02P,,Yes,1,,
ADSL,33,TRT02PN,integer,8,Planned Treatment for Period 01 (N),,,Derived,ADSLCOM.TRT02PN,,ADSLCMP.TRT02PN,,Yes,2,,
ADSL,34,TRT03P,text,40,Planned Treatment for Period 01,,,DM.ARM,ADSLCOM.TRT03P,,ADSLCMP.TRT03P,,Yes,1,,
ADSL,35,TRT03PN,integer,8,Planned Treatment for Period 01 (N),,,Derived,ADSLCOM.TRT03PN,,ADSLCMP.TRT03PN,,Yes,2,,
ADSL,36,TRT4P,text,40,Planned Treatment for Period 01,,,DM.ARM,ADSLCOM.TRT4P,,ADSLCMP.TRT4P,,Yes,1,,
ADSL,37,TRT04PN,integer,8,Planned Treatment for Period 01 (N),,,Derived,ADSLCOM.TRT04PN,,ADSLCMP.TRT04PN,,Yes,2,,
ADSL,38,TRT05P,text,40,Planned Treatment for Period 01,,,DM.ARM,ADSLCOM.TRT05P,,ADSLCMP.TRT05P,,Yes,1,,
ADSL,39,TRT05PN,integer,8,Planned Treatment for Period 01 (N),,,Derived,ADSLCOM.TRT05PN,,ADSLCMP.TRT05PN,,Yes,2,,
ADSL,40,TRT06P,text,40,Planned Treatment for Period 01,,,DM.ARM,ADSLCOM.TRT06P,,ADSLCMP.TRT06P,,Yes,1,,
ADSL,41,TRT06PN,integer,8,Planned Treatment for Period 01 (N),,,Derived,ADSLCOM.TRT06PN,,ADSLCMP.TRT06PN,,Yes,2,,
ADSL,42,TRT07P,text,40,Planned Treatment for Period 01,,,DM.ARM,ADSLCOM.TRT07P,,ADSLCMP.TRT07P,,Yes,1,,
ADSL,43,TRT07PN,integer,8,Planned Treatment for Period 01 (N),,,Derived,ADSLCOM.TRT07PN,,ADSLCMP.TRT07PN,,Yes,2,,
ADSL,44,TRT08P,text,40,Planned Treatment for Period 01,,,DM.ARM,ADSLCOM.TRT08P,,ADSLCMP.TRT08P,,Yes,1,,
ADSL,45,TRT08PN,integer,8,Planned Treatment for Period 01 (N),,,Derived,ADSLCOM.TRT08PN,,ADSLCMP.TRT08PN,,Yes,2,,
ADSL,46,TRT09P,text,40,Planned Treatment for Period 01,,,DM.ARM,ADSLCOM.TRT09P,,ADSLCMP.TRT09P,,Yes,1,,
ADSL,47,TRT09PN,integer,8,Planned Treatment for Period 01 (N),,,Derived,ADSLCOM.TRT09PN,,ADSLCMP.TRT09PN,,Yes,2,,
ADSL,48,TRT10P,text,40,Planned Treatment for Period 01,,,DM.ARM,ADSLCOM.TRT10P,,ADSLCMP.TRT10P,,Yes,1,,
ADSL,49,TRT10PN,integer,8,Planned Treatment for Period 01 (N),,,Derived,ADSLCOM.TRT10PN,,ADSLCMP.TRT10PN,,Yes,2,,
ADSL,50,TRT11P,text,40,Planned Treatment for Period 01,,,DM.ARM,ADSLCOM.TRT11P,,ADSLCMP.TRT11P,,Yes,1,,
ADSL,51,TRT11PN,integer,8,Planned Treatment for Period 01 (N),,,Derived,ADSLCOM.TRT11PN,,ADSLCMP.TRT11PN,,Yes,2,,
ADSL,52,TRT12P,text,40,Planned Treatment for Period 01,,,DM.ARM,ADSLCOM.TRT12P,,ADSLCMP.TRT12P,,Yes,1,,
ADSL,53,TRT12PN,integer,8,Planned Treatment for Period 01 (N),,,Derived,ADSLCOM.TRT12PN,,ADSLCMP.TRT12PN,,Yes,2,,
ADSL,54,TRT01A,text,40,Actual Treatment for Period 01,,,DM.ACTARM,ADSLCOM.TRT01A,,ADSLCMP.TRT01A,,No,1,,
ADSL,55,TRT01AN,integer,8,Actual Treatment for Period 01 (N),,,Derived,ADSLCOM.TRT01AN,,ADSLCMP.TRT01AN,,No,2,,
ADSL,56,TRTSEQP,text,40,Planned Sequence of Treatments,,,,ADSLCOM.TRTSEQP,,ADSLCMP.TRTSEQP,,No,,,
ADSL,57,TRTSEQPN,integer,8,Planned Sequence of Treatments (N),,,,ADSLCOM.TRTSEQPN,,ADSLCMP.TRTSEQPN,,No,,,
ADSL,58,TRTSEQA,text,40,Actual Sequence of Treatments,,,,ADSLCOM.TRTSEQA,,ADSLCMP.TRTSEQA,,No,,,
ADSL,59,TRTSEQAN,integer,8,Actual Sequence of Treatments (N),,,,ADSLCOM.TRTSEQAN,,ADSLCMP.TRTSEQAN,,No,,,
ADSL,60,TR01PG1,text,40,Planned Pooled Treatment y for Period 01,,,,ADSLCOM.TR01PG1,,ADSLCMP.TR01PG1,,No,,,
ADSL,61,TR01PG1N,integer,8,Planned Pooled Trt 1 for Period 01 (N),,,,ADSLCOM.TR01PG1N,,ADSLCMP.TR01PG1N,,No,,,
ADSL,62,TR01AG1,text,40,Actual Pooled Treatment y for Period 01,,,,ADSLCOM.TR01AG1,,ADSLCMP.TR01AG1,,No,,,
ADSL,63,TR01AG1N,integer,8,Actual Pooled Trt y for Period 01 (N),,,,ADSLCOM.TR01AG1N,,ADSLCMP.TR01AG1N,,No,,,
ADSL,64,TSEQPG1,text,40,Planned Pooled Treatment Sequence 1,,,,ADSLCOM.TSEQPG1,,ADSLCMP.TSEQPG1,,No,,,
ADSL,65,TSEQPG1N,integer,8,Planned Pooled Treatment Sequence 1 (N),,,,ADSLCOM.TSEQPG1N,,ADSLCMP.TSEQPG1N,,No,,,
ADSL,66,TSEQAG1,text,40,Actual Pooled Treatment Sequence 1,,,,ADSLCOM.TSEQAG1,,ADSLCMP.TSEQAG1,,No,,,
ADSL,67,TSEQAG1N,integer,8,Actual Pooled Treatment Sequence 1 (N),,,,ADSLCOM.TSEQAG1N,,ADSLCMP.TSEQAG1N,,No,,,
ADSL,68,DOSE01P,float,8,Planned Treatment Dose for Period 01,,,2,ADSLCOM.DOSE01P,,ADSLCMP.DOSE01P,,Yes,1,,
ADSL,69,DOSE01A,float,8,Actual Treatment Dose for Period 01,,,2,ADSLCOM.DOSE01A,,ADSLCMP.DOSE01A,,Yes,1,,
ADSL,70,DOSE01U,text,40,Units for Dose for Period 01,,,,ADSLCOM.DOSE01U,,ADSLCMP.DOSE01U,,Yes,1,,
ADSL,71,DOSE02P,float,8,Planned Treatment Dose for Period 02,,,2,ADSLCOM.DOSE02P,,ADSLCMP.DOSE02P,,Yes,1,,
ADSL,72,DOSE02A,float,8,Actual Treatment Dose for Period 02,,,2,ADSLCOM.DOSE02A,,ADSLCMP.DOSE02A,,Yes,1,,
ADSL,73,DOSE02U,text,40,Units for Dose for Period 02,,,,ADSLCOM.DOSE02U,,ADSLCMP.DOSE02U,,Yes,1,,
ADSL,74,DOSE03P,float,8,Planned Treatment Dose for Period 03,,,2,ADSLCOM.DOSE03P,,ADSLCMP.DOSE03P,,Yes,1,,
ADSL,75,DOSE03A,float,8,Actual Treatment Dose for Period 03,,,2,ADSLCOM.DOSE03A,,ADSLCMP.DOSE03A,,Yes,1,,
ADSL,76,DOSE03U,text,40,Units for Dose for Period 03,,,,ADSLCOM.DOSE03U,,ADSLCMP.DOSE03U,,Yes,1,,
ADSL,77,DOSE04P,float,8,Planned Treatment Dose for Period 04,,,2,ADSLCOM.DOSE04P,,ADSLCMP.DOSE04P,,Yes,1,,
ADSL,78,DOSE04A,float,8,Actual Treatment Dose for Period 04,,,2,ADSLCOM.DOSE04A,,ADSLCMP.DOSE04A,,Yes,1,,
ADSL,79,DOSE04U,text,40,Units for Dose for Period 04,,,,ADSLCOM.DOSE04U,,ADSLCMP.DOSE04U,,Yes,1,,
ADSL,80,DOSE05P,float,8,Planned Treatment Dose for Period 05,,,2,ADSLCOM.DOSE05P,,ADSLCMP.DOSE05P,,Yes,1,,
ADSL,81,DOSE05A,float,8,Actual Treatment Dose for Period 05,,,2,ADSLCOM.DOSE05A,,ADSLCMP.DOSE05A,,Yes,1,,
ADSL,82,DOSE05U,text,40,Units for Dose for Period 05,,,,ADSLCOM.DOSE05U,,ADSLCMP.DOSE05U,,Yes,1,,
ADSL,83,DOSE06P,float,8,Planned Treatment Dose for Period 06,,,2,ADSLCOM.DOSE06P,,ADSLCMP.DOSE06P,,Yes,1,,
ADSL,84,DOSE06A,float,8,Actual Treatment Dose for Period 06,,,2,ADSLCOM.DOSE06A,,ADSLCMP.DOSE06A,,Yes,1,,
ADSL,85,DOSE06U,text,40,Units for Dose for Period 06,,,,ADSLCOM.DOSE06U,,ADSLCMP.DOSE06U,,Yes,1,,
ADSL,86,DOSE07P,float,8,Planned Treatment Dose for Period 07,,,2,ADSLCOM.DOSE07P,,ADSLCMP.DOSE07P,,Yes,1,,
ADSL,87,DOSE07A,float,8,Actual Treatment Dose for Period 07,,,2,ADSLCOM.DOSE07A,,ADSLCMP.DOSE07A,,Yes,1,,
ADSL,88,DOSE07U,text,40,Units for Dose for Period 07,,,,ADSLCOM.DOSE07U,,ADSLCMP.DOSE07U,,Yes,1,,
ADSL,89,DOSE08P,float,8,Planned Treatment Dose for Period 08,,,2,ADSLCOM.DOSE08P,,ADSLCMP.DOSE08P,,Yes,1,,
ADSL,90,DOSE08A,float,8,Actual Treatment Dose for Period 08,,,2,ADSLCOM.DOSE08A,,ADSLCMP.DOSE08A,,Yes,1,,
ADSL,91,DOSE08U,text,40,Units for Dose for Period 08,,,,ADSLCOM.DOSE08U,,ADSLCMP.DOSE08U,,Yes,1,,
ADSL,92,DOSE09P,float,8,Planned Treatment Dose for Period 09,,,2,ADSLCOM.DOSE09P,,ADSLCMP.DOSE09P,,Yes,1,,
ADSL,93,DOSE09A,float,8,Actual Treatment Dose for Period 09,,,2,ADSLCOM.DOSE09A,,ADSLCMP.DOSE09A,,Yes,1,,
ADSL,94,DOSE09U,text,40,Units for Dose for Period 09,,,,ADSLCOM.DOSE09U,,ADSLCMP.DOSE09U,,Yes,1,,
ADSL,95,DOSE10P,float,8,Planned Treatment Dose for Period 10,,,2,ADSLCOM.DOSE10P,,ADSLCMP.DOSE10P,,Yes,1,,
ADSL,96,DOSE10A,float,8,Actual Treatment Dose for Period 10,,,2,ADSLCOM.DOSE10A,,ADSLCMP.DOSE10A,,Yes,1,,
ADSL,97,DOSE10U,text,40,Units for Dose for Period 10,,,,ADSLCOM.DOSE10U,,ADSLCMP.DOSE10U,,Yes,1,,
ADSL,98,DOSE11P,float,8,Planned Treatment Dose for Period 11,,,2,ADSLCOM.DOSE11P,,ADSLCMP.DOSE11P,,Yes,1,,
ADSL,99,DOSE11A,float,8,Actual Treatment Dose for Period 11,,,2,ADSLCOM.DOSE11A,,ADSLCMP.DOSE11A,,Yes,1,,
ADSL,100,DOSE11U,text,40,Units for Dose for Period 11,,,,ADSLCOM.DOSE11U,,ADSLCMP.DOSE11U,,Yes,1,,
ADSL,101,DOSE12P,float,8,Planned Treatment Dose for Period 12,,,2,ADSLCOM.DOSE12P,,ADSLCMP.DOSE12P,,Yes,1,,
ADSL,102,DOSE12A,float,8,Actual Treatment Dose for Period 12,,,2,ADSLCOM.DOSE12A,,ADSLCMP.DOSE12A,,Yes,1,,
ADSL,103,DOSE12U,text,40,Units for Dose for Period 12,,,,ADSLCOM.DOSE12U,,ADSLCMP.DOSE12U,,Yes,1,,
ADSL,104,TRTSDT,integer,8,Date of First Exposure to Treatment,,,,ADSLCOM.TRTSDT,,ADSLCMP.TRTSDT,,No,2,,
ADSL,105,TRTSTM,integer,8,Time of First Exposure to Treatment,,,,ADSLCOM.TRTSTM,,ADSLCMP.TRTSTM,,No,2,,
ADSL,106,TRTSDTM,integer,8,Datetime of First Exposure to Treatment,,,,ADSLCOM.TRTSDTM,,ADSLCMP.TRTSDTM,,Yes,1,,
ADSL,107,TRTSDTF,text,1,Date of First Exposure Imput. Flag,,,,ADSLCOM.TRTSDTF,,ADSLCMP.TRTSDTF,DATEFL,Yes,,,
ADSL,108,TRTSTMF,text,1,Time of First Exposure Imput. Flag,,,,ADSLCOM.TRTSTMF,,ADSLCMP.TRTSTMF,TIMEFL,Yes,,,
ADSL,109,TRTEDT,integer,8,Date of Last Exposure to Treatment,,,,ADSLCOM.TRTEDT,,ADSLCMP.TRTEDT,,No,,,
ADSL,110,TRTETM,integer,8,Time of Last Exposure to Treatment,,,,ADSLCOM.TRTETM,,ADSLCMP.TRTETM,,No,,,
ADSL,111,TRTEDTM,integer,8,Datetime of Last Exposure to Treatment,,,,ADSLCOM.TRTEDTM,,ADSLCMP.TRTEDTM,,Yes,,,
ADSL,112,TRTEDTF,text,1,Date of Last Exposure Imput. Flag,,,,ADSLCOM.TRTEDTF,,ADSLCMP.TRTEDTF,DATEFL,Yes,,,
ADSL,113,TRTETMF,text,1,Time of Last Exposure Imput. Flag,,,,ADSLCOM.TRTETMF,,ADSLCMP.TRTETMF,TIMEFL,Yes,,,
ADSL,114,TR01SDTM,integer,8,Datetime of First Exposure in Period 01,,,,ADSLCOM.TR01SDTM,,ADSLCMP.TR01SDTM,,Yes,,,
ADSL,115,TR01SDTF,text,1,Date 1st Exposure Period 01 Imput. Flag,,,,ADSLCOM.TR01SDTF,,ADSLCMP.TR01SDTF,DATEFL,Yes,,,
ADSL,116,TR01STMF,text,1,Time 1st Exposure Period 01 Imput. Flag,,,,ADSLCOM.TR01STMF,,ADSLCMP.TR01STMF,TIMEFL,Yes,,,
ADSL,117,TR01EDTM,integer,8,Datetime of Last Exposure in Period 01,,,,ADSLCOM.TR01EDTM,,ADSLCMP.TR01EDTM,,Yes,,,
ADSL,118,TR01EDTF,text,1,Date Last Exposure Period 01 Imput. Flag,,,,ADSLCOM.TR01EDTF,,ADSLCMP.TR01EDTF,DATEFL,Yes,,,
ADSL,119,TR01ETMF,text,1,Time Last Exposure Period 01 Imput. Flag,,,,ADSLCOM.TR01ETMF,,ADSLCMP.TR01ETMF,TIMEFL,Yes,,,
ADSL,120,TR02SDTM,integer,8,Datetime of First Exposure in Period 02,,,,ADSLCOM.TR02SDTM,,ADSLCMP.TR02SDTM,,Yes,,,
ADSL,121,TR02SDTF,text,1,Date 1st Exposure Period 02 Imput. Flag,,,,ADSLCOM.TR02SDTF,,ADSLCMP.TR02SDTF,DATEFL,Yes,,,
ADSL,122,TR02STMF,text,1,Time 1st Exposure Period 02 Imput. Flag,,,,ADSLCOM.TR02STMF,,ADSLCMP.TR02STMF,TIMEFL,Yes,,,
ADSL,123,TR02EDTM,integer,8,Datetime of Last Exposure in Period 02,,,,ADSLCOM.TR02EDTM,,ADSLCMP.TR02EDTM,,Yes,,,
ADSL,124,TR02EDTF,text,1,Date Last Exposure Period 02 Imput. Flag,,,,ADSLCOM.TR02EDTF,,ADSLCMP.TR02EDTF,DATEFL,Yes,,,
ADSL,125,TR02ETMF,text,1,Time Last Exposure Period 02 Imput. Flag,,,,ADSLCOM.TR02ETMF,,ADSLCMP.TR02ETMF,TIMEFL,Yes,,,
ADSL,126,TR03SDTM,integer,8,Datetime of First Exposure in Period 03,,,,ADSLCOM.TR03SDTM,,ADSLCMP.TR03SDTM,,Yes,,,
ADSL,127,TR03SDTF,text,1,Date 1st Exposure Period 03 Imput. Flag,,,,ADSLCOM.TR03SDTF,,ADSLCMP.TR03SDTF,DATEFL,Yes,,,
ADSL,128,TR03STMF,text,1,Time 1st Exposure Period 03 Imput. Flag,,,,ADSLCOM.TR03STMF,,ADSLCMP.TR03STMF,TIMEFL,Yes,,,
ADSL,129,TR03EDTM,integer,8,Datetime of Last Exposure in Period 03,,,,ADSLCOM.TR03EDTM,,ADSLCMP.TR03EDTM,,Yes,,,
ADSL,130,TR03EDTF,text,1,Date Last Exposure Period 03 Imput. Flag,,,,ADSLCOM.TR03EDTF,,ADSLCMP.TR03EDTF,DATEFL,Yes,,,
ADSL,131,TR03ETMF,text,1,Time Last Exposure Period 03 Imput. Flag,,,,ADSLCOM.TR03ETMF,,ADSLCMP.TR03ETMF,TIMEFL,Yes,,,
ADSL,132,TR04SDTM,integer,8,Datetime of First Exposure in Period 04,,,,ADSLCOM.TR04SDTM,,ADSLCMP.TR04SDTM,,Yes,,,
ADSL,133,TR04SDTF,text,1,Date 1st Exposure Period 04 Imput. Flag,,,,ADSLCOM.TR04SDTF,,ADSLCMP.TR04SDTF,DATEFL,Yes,,,
ADSL,134,TR04STMF,text,1,Time 1st Exposure Period 04 Imput. Flag,,,,ADSLCOM.TR04STMF,,ADSLCMP.TR04STMF,TIMEFL,Yes,,,
ADSL,135,TR04EDTM,integer,8,Datetime of Last Exposure in Period 04,,,,ADSLCOM.TR04EDTM,,ADSLCMP.TR04EDTM,,Yes,,,
ADSL,136,TR04EDTF,text,1,Date Last Exposure Period 04 Imput. Flag,,,,ADSLCOM.TR04EDTF,,ADSLCMP.TR04EDTF,DATEFL,Yes,,,
ADSL,137,TR04ETMF,text,1,Time Last Exposure Period 04 Imput. Flag,,,,ADSLCOM.TR04ETMF,,ADSLCMP.TR04ETMF,TIMEFL,Yes,,,
ADSL,138,TR05SDTM,integer,8,Datetime of First Exposure in Period 05,,,,ADSLCOM.TR05SDTM,,ADSLCMP.TR05SDTM,,Yes,,,
ADSL,139,TR05SDTF,text,1,Date 1st Exposure Period 05 Imput. Flag,,,,ADSLCOM.TR05SDTF,,ADSLCMP.TR05SDTF,DATEFL,Yes,,,
ADSL,140,TR05STMF,text,1,Time 1st Exposure Period 05 Imput. Flag,,,,ADSLCOM.TR05STMF,,ADSLCMP.TR05STMF,TIMEFL,Yes,,,
ADSL,141,TR05EDTM,integer,8,Datetime of Last Exposure in Period 05,,,,ADSLCOM.TR05EDTM,,ADSLCMP.TR05EDTM,,Yes,,,
ADSL,142,TR05EDTF,text,1,Date Last Exposure Period 05 Imput. Flag,,,,ADSLCOM.TR05EDTF,,ADSLCMP.TR05EDTF,DATEFL,Yes,,,
ADSL,143,TR05ETMF,text,1,Time Last Exposure Period 05 Imput. Flag,,,,ADSLCOM.TR05ETMF,,ADSLCMP.TR05ETMF,TIMEFL,Yes,,,
ADSL,144,TR06SDTM,integer,8,Datetime of First Exposure in Period 06,,,,ADSLCOM.TR06SDTM,,ADSLCMP.TR06SDTM,,Yes,,,
ADSL,145,TR06SDTF,text,1,Date 1st Exposure Period 06 Imput. Flag,,,,ADSLCOM.TR06SDTF,,ADSLCMP.TR06SDTF,DATEFL,Yes,,,
ADSL,146,TR06STMF,text,1,Time 1st Exposure Period 06 Imput. Flag,,,,ADSLCOM.TR06STMF,,ADSLCMP.TR06STMF,TIMEFL,Yes,,,
ADSL,147,TR06EDTM,integer,8,Datetime of Last Exposure in Period 06,,,,ADSLCOM.TR06EDTM,,ADSLCMP.TR06EDTM,,Yes,,,
ADSL,148,TR06EDTF,text,1,Date Last Exposure Period 06 Imput. Flag,,,,ADSLCOM.TR06EDTF,,ADSLCMP.TR06EDTF,DATEFL,Yes,,,
ADSL,149,TR06ETMF,text,1,Time Last Exposure Period 06 Imput. Flag,,,,ADSLCOM.TR06ETMF,,ADSLCMP.TR06ETMF,TIMEFL,Yes,,,
ADSL,150,TR07SDTM,integer,8,Datetime of First Exposure in Period 07,,,,ADSLCOM.TR07SDTM,,ADSLCMP.TR07SDTM,,Yes,,,
ADSL,151,TR07SDTF,text,1,Date 1st Exposure Period 07 Imput. Flag,,,,ADSLCOM.TR07SDTF,,ADSLCMP.TR07SDTF,DATEFL,Yes,,,
ADSL,152,TR07STMF,text,1,Time 1st Exposure Period 07 Imput. Flag,,,,ADSLCOM.TR07STMF,,ADSLCMP.TR07STMF,TIMEFL,Yes,,,
ADSL,153,TR07EDTM,integer,8,Datetime of Last Exposure in Period 07,,,,ADSLCOM.TR07EDTM,,ADSLCMP.TR07EDTM,,Yes,,,
ADSL,154,TR07EDTF,text,1,Date Last Exposure Period 07 Imput. Flag,,,,ADSLCOM.TR07EDTF,,ADSLCMP.TR07EDTF,DATEFL,Yes,,,
ADSL,155,TR07ETMF,text,1,Time Last Exposure Period 07 Imput. Flag,,,,ADSLCOM.TR07ETMF,,ADSLCMP.TR07ETMF,TIMEFL,Yes,,,
ADSL,156,TR08SDTM,integer,8,Datetime of First Exposure in Period 08,,,,ADSLCOM.TR08SDTM,,ADSLCMP.TR08SDTM,,Yes,,,
ADSL,157,TR08SDTF,text,1,Date 1st Exposure Period 08 Imput. Flag,,,,ADSLCOM.TR08SDTF,,ADSLCMP.TR08SDTF,DATEFL,Yes,,,
ADSL,158,TR08STMF,text,1,Time 1st Exposure Period 08 Imput. Flag,,,,ADSLCOM.TR08STMF,,ADSLCMP.TR08STMF,TIMEFL,Yes,,,
ADSL,159,TR08EDTM,integer,8,Datetime of Last Exposure in Period 08,,,,ADSLCOM.TR08EDTM,,ADSLCMP.TR08EDTM,,Yes,,,
ADSL,160,TR08EDTF,text,1,Date Last Exposure Period 08 Imput. Flag,,,,ADSLCOM.TR08EDTF,,ADSLCMP.TR08EDTF,DATEFL,Yes,,,
ADSL,161,TR08ETMF,text,1,Time Last Exposure Period 08 Imput. Flag,,,,ADSLCOM.TR08ETMF,,ADSLCMP.TR08ETMF,TIMEFL,Yes,,,
ADSL,162,TR09SDTM,integer,8,Datetime of First Exposure in Period 09,,,,ADSLCOM.TR09SDTM,,ADSLCMP.TR09SDTM,,Yes,,,
ADSL,163,TR09SDTF,text,1,Date 1st Exposure Period 09 Imput. Flag,,,,ADSLCOM.TR09SDTF,,ADSLCMP.TR09SDTF,DATEFL,Yes,,,
ADSL,164,TR09STMF,text,1,Time 1st Exposure Period 09 Imput. Flag,,,,ADSLCOM.TR09STMF,,ADSLCMP.TR09STMF,TIMEFL,Yes,,,
ADSL,165,TR09EDTM,integer,8,Datetime of Last Exposure in Period 09,,,,ADSLCOM.TR09EDTM,,ADSLCMP.TR09EDTM,,Yes,,,
ADSL,166,TR09EDTF,text,1,Date Last Exposure Period 09 Imput. Flag,,,,ADSLCOM.TR09EDTF,,ADSLCMP.TR09EDTF,DATEFL,Yes,,,
ADSL,167,TR09ETMF,text,1,Time Last Exposure Period 09 Imput. Flag,,,,ADSLCOM.TR09ETMF,,ADSLCMP.TR09ETMF,TIMEFL,Yes,,,
ADSL,168,TR10SDTM,integer,8,Datetime of First Exposure in Period 10,,,,ADSLCOM.TR10SDTM,,ADSLCMP.TR10SDTM,,Yes,,,
ADSL,169,TR10SDTF,text,1,Date 1st Exposure Period 10 Imput. Flag,,,,ADSLCOM.TR10SDTF,,ADSLCMP.TR10SDTF,DATEFL,Yes,,,
ADSL,170,TR10STMF,text,1,Time 1st Exposure Period 10 Imput. Flag,,,,ADSLCOM.TR10STMF,,ADSLCMP.TR10STMF,TIMEFL,Yes,,,
ADSL,171,TR10EDTM,integer,8,Datetime of Last Exposure in Period 10,,,,ADSLCOM.TR10EDTM,,ADSLCMP.TR10EDTM,,Yes,,,
ADSL,172,TR10EDTF,text,1,Date Last Exposure Period 10 Imput. Flag,,,,ADSLCOM.TR10EDTF,,ADSLCMP.TR10EDTF,DATEFL,Yes,,,
ADSL,173,TR10ETMF,text,1,Time Last Exposure Period 10 Imput. Flag,,,,ADSLCOM.TR10ETMF,,ADSLCMP.TR10ETMF,TIMEFL,Yes,,,
ADSL,174,TR11SDTM,integer,8,Datetime of First Exposure in Period 11,,,,ADSLCOM.TR11SDTM,,ADSLCMP.TR11SDTM,,Yes,,,
ADSL,175,TR11SDTF,text,1,Date 1st Exposure Period 11 Imput. Flag,,,,ADSLCOM.TR11SDTF,,ADSLCMP.TR11SDTF,DATEFL,Yes,,,
ADSL,176,TR11STMF,text,1,Time 1st Exposure Period 11 Imput. Flag,,,,ADSLCOM.TR11STMF,,ADSLCMP.TR11STMF,TIMEFL,Yes,,,
ADSL,177,TR11EDTM,integer,8,Datetime of Last Exposure in Period 11,,,,ADSLCOM.TR11EDTM,,ADSLCMP.TR11EDTM,,Yes,,,
ADSL,178,TR11EDTF,text,1,Date Last Exposure Period 11 Imput. Flag,,,,ADSLCOM.TR11EDTF,,ADSLCMP.TR11EDTF,DATEFL,Yes,,,
ADSL,179,TR11ETMF,text,1,Time Last Exposure Period 11 Imput. Flag,,,,ADSLCOM.TR11ETMF,,ADSLCMP.TR11ETMF,TIMEFL,Yes,,,
ADSL,180,TR12SDTM,integer,8,Datetime of First Exposure in Period 12,,,,ADSLCOM.TR12SDTM,,ADSLCMP.TR12SDTM,,Yes,,,
ADSL,181,TR12SDTF,text,1,Date 1st Exposure Period 12 Imput. Flag,,,,ADSLCOM.TR12SDTF,,ADSLCMP.TR12SDTF,DATEFL,Yes,,,
ADSL,182,TR12STMF,text,1,Time 1st Exposure Period 12 Imput. Flag,,,,ADSLCOM.TR12STMF,,ADSLCMP.TR12STMF,TIMEFL,Yes,,,
ADSL,183,TR12EDTM,integer,8,Datetime of Last Exposure in Period 12,,,,ADSLCOM.TR12EDTM,,ADSLCMP.TR12EDTM,,Yes,,,
ADSL,184,TR12EDTF,text,1,Date Last Exposure Period 12 Imput. Flag,,,,ADSLCOM.TR12EDTF,,ADSLCMP.TR12EDTF,DATEFL,Yes,,,
ADSL,185,TR12ETMF,text,1,Time Last Exposure Period 12 Imput. Flag,,,,ADSLCOM.TR12ETMF,,ADSLCMP.TR12ETMF,TIMEFL,Yes,,,
ADSL,186,TR01STM,integer,8,Time of First Exposure in Period 01,,,,ADSLCOM.TR01STM,,ADSLCMP.TR01STM,,No,,,
ADSL,187,TR01SDTM,integer,8,Datetime of First Exposure in Period 01,,,,ADSLCOM.TR01SDTM,,ADSLCMP.TR01SDTM,,No,,,
ADSL,188,TR01SDTF,text,1,Date 1st Exposure Period xx Imput. Flag,,,,ADSLCOM.TR01SDTF,,ADSLCMP.TR01SDTF,DATEFL,No,,,
ADSL,189,TR01STMF,text,1,Time 1st Exposure Period 01 Imput. Flag,,,,ADSLCOM.TR01STMF,,ADSLCMP.TR01STMF,TIMEFL,No,,,
ADSL,190,TR01EDT,integer,8,Date of Last Exposure in Period 01,,,,ADSLCOM.TR01EDT,,ADSLCMP.TR01EDT,,No,,,
ADSL,191,TR01ETM,integer,8,Time of Last Exposure in Period 01,,,,ADSLCOM.TR01ETM,,ADSLCMP.TR01ETM,,No,,,
ADSL,192,TR01EDTM,integer,8,Datetime of Last Exposure in Period 01,,,,ADSLCOM.TR01EDTM,,ADSLCMP.TR01EDTM,,No,,,
ADSL,193,TR01EDTF,text,1,Date Last Exposure Period 01 Imput. Flag,,,,ADSLCOM.TR01EDTF,,ADSLCMP.TR01EDTF,DATEFL,No,,,
ADSL,194,TR01ETMF,text,1,Time Last Exposure Period 01 Imput. Flag,,,,ADSLCOM.TR01ETMF,,ADSLCMP.TR01ETMF,TIMEFL,No,,,
ADSL,195,AP01SDT,integer,8,Period 01 Start Date,,,,ADSLCOM.AP01SDT,,ADSLCMP.AP01SDT,,No,,,
ADSL,196,AP01STM,integer,8,Period 01 Start Time,,,,ADSLCOM.AP01STM,,ADSLCMP.AP01STM,,No,,,
ADSL,197,AP01SDTM,integer,8,Period 01 Start Datetime,,,,ADSLCOM.AP01SDTM,,ADSLCMP.AP01SDTM,,No,,,
ADSL,198,AP01SDTF,text,1,Period 01 Start Date Imput. Flag,,,,ADSLCOM.AP01SDTF,,ADSLCMP.AP01SDTF,DATEFL,No,,,
ADSL,199,AP01STMF,text,1,Period 01 Start Time Imput. Flag,,,,ADSLCOM.AP01STMF,,ADSLCMP.AP01STMF,TIMEFL,No,,,
ADSL,200,AP01EDT,integer,8,Period 01 End Date,,,,ADSLCOM.AP01EDT,,ADSLCMP.AP01EDT,,No,,,
ADSL,201,AP01ETM,integer,8,Period 01 End Time,,,,ADSLCOM.AP01ETM,,ADSLCMP.AP01ETM,,No,,,
ADSL,202,AP01EDTM,integer,8,Period 01 End Datetime,,,,ADSLCOM.AP01EDTM,,ADSLCMP.AP01EDTM,,No,,,
ADSL,203,AP01EDTF,text,1,Period 01 End Date Imput. Flag,,,,ADSLCOM.AP01EDTF,,ADSLCMP.AP01EDTF,DATEFL,No,,,
ADSL,204,AP01ETMF,text,1,Period 01 End Time Imput. Flag,,,,ADSLCOM.AP01ETMF,,ADSLCMP.AP01ETMF,TIMEFL,No,,,
ADSL,205,P01S1,text,40,Description of Period 01 Subperiod 1,,,,ADSLCOM.P01S1,,ADSLCMP.P01S1,,No,,,
ADSL,206,P01S1SDT,integer,8,Period 01 Subperiod 1 Start Date,,,,ADSLCOM.P01S1SDT,,ADSLCMP.P01S1SDT,,No,,,
ADSL,207,P01S1STM,integer,8,Period 01 Subperiod 1 Start Time,,,,ADSLCOM.P01S1STM,,ADSLCMP.P01S1STM,,No,,,
ADSL,208,P01S1SDM,integer,8,Period 01 Subperiod 1 Start Datetime,,,,ADSLCOM.P01S1SDM,,ADSLCMP.P01S1SDM,,No,,,
ADSL,209,P01S1SDF,text,1,Period 01 Subper 1 Start Date Imput Flag,,,,ADSLCOM.P01S1SDF,,ADSLCMP.P01S1SDF,DATEFL,No,,,
ADSL,210,P01S1STF,text,1,Period 01 Subper 1 Start Time Imput Flag,,,,ADSLCOM.P01S1STF,,ADSLCMP.P01S1STF,TIMEFL,No,,,
ADSL,211,P01S1EDT,integer,8,Period 01 Subperiod 1 End Date,,,,ADSLCOM.P01S1EDT,,ADSLCMP.P01S1EDT,,No,,,
ADSL,212,P01S1ETM,integer,8,Period 01 Subperiod 1 End Time,,,,ADSLCOM.P01S1ETM,,ADSLCMP.P01S1ETM,,No,,,
ADSL,213,P01S1EDM,integer,8,Period 01 Subperiod 1 End Datetime,,,,ADSLCOM.P01S1EDM,,ADSLCMP.P01S1EDM,,No,,,
ADSL,214,P01S1EDF,text,1,Period 01 Subper 1 End Date Imput Flag,,,,ADSLCOM.P01S1EDF,,ADSLCMP.P01S1EDF,DATEFL,No,,,
ADSL,215,P01S1ETF,text,1,Period 01 Subper 1 End Time Imput Flag,,,,ADSLCOM.P01S1ETF,,ADSLCMP.P01S1ETF,TIMEFL,No,,,
ADSL,216,APHASE1,text,40,Description of Phase 1,,,,ADSLCOM.APHASE1,,ADSLCMP.APHASE1,,No,,,
ADSL,217,PH1SDT,integer,8,Phase 1 Start Date,,,,ADSLCOM.PH1SDT,,ADSLCMP.PH1SDT,,No,,,
ADSL,218,PH1STM,integer,8,Phase 1 Start Time,,,,ADSLCOM.PH1STM,,ADSLCMP.PH1STM,,No,,,
ADSL,219,PH1SDTM,integer,8,Phase 1 Start Datetime,,,,ADSLCOM.PH1SDTM,,ADSLCMP.PH1SDTM,,No,,,
ADSL,220,PH1SDTF,text,1,Phase 1 Start Date Imputation Flag,,,,ADSLCOM.PH1SDTF,,ADSLCMP.PH1SDTF,DATEFL,No,,,
ADSL,221,PH1STMF,text,1,Phase 1 Start Time Imputation Flag,,,,ADSLCOM.PH1STMF,,ADSLCMP.PH1STMF,TIMEFL,No,,,
ADSL,222,PH1EDT,integer,8,Phase 1 End Date,,,,ADSLCOM.PH1EDT,,ADSLCMP.PH1EDT,,Yes,,,
ADSL,223,PH1ETM,integer,8,Phase 1 End Time,,,,ADSLCOM.PH1ETM,,ADSLCMP.PH1ETM,,No,,,
ADSL,224,PH1EDTM,integer,8,Phase 1 End Datetime,,,,ADSLCOM.PH1EDTM,,ADSLCMP.PH1EDTM,,No,,,
ADSL,225,PH1EDTF,text,1,Phase 1 End Date Imputation Flag,,,,ADSLCOM.PH1EDTF,,ADSLCMP.PH1EDTF,DATEFL,Yes,,,
ADSL,226,PH1ETMF,text,1,Phase 1 End Time Imputation Flag,,,,ADSLCOM.PH1ETMF,,ADSLCMP.PH1ETMF,TIMEFL,No,,,
ADSL,227,ACYCLE0,text,40,Description of Cycle 0,,,,ADSLCOM.ACYCLE0,,ADSLCMP.ACYCLE0,,Yes,,,
ADSL,228,ACY0SDTM,integer,8,Cycle 0 Start Datetime,,,,ADSLCOM.ACY0SDTM,,ADSLCMP.ACY0SDTM,,Yes,,,
ADSL,229,ACY0SDTF,text,1,Cycle 0 Start Date Imputation Flag,,,,ADSLCOM.ACY0SDTF,,ADSLCMP.ACY0SDTF,DATEFL,Yes,,,
ADSL,230,ACY0STMF,text,1,Cycle 0 Start Time Imputation Flag,,,,ADSLCOM.ACY0STMF,,ADSLCMP.ACY0STMF,TIMEFL,Yes,,,
ADSL,231,ACY0EDTM,integer,8,Cycle 0 End Datetime,,,,ADSLCOM.ACY0EDTM,,ADSLCMP.ACY0EDTM,,Yes,,,
ADSL,232,ACY0EDTF,text,1,Cycle 0 End Date Imputation Flag,,,,ADSLCOM.ACY0EDTF,,ADSLCMP.ACY0EDTF,DATEFL,Yes,,,
ADSL,233,ACY0ETMF,text,1,Cycle 0 End Time Imputation Flag,,,,ADSLCOM.ACY0ETMF,,ADSLCMP.ACY0ETMF,TIMEFL,Yes,,,
ADSL,234,ACYCLE1,text,40,Description of Cycle 1,,,,ADSLCOM.ACYCLE1,,ADSLCMP.ACYCLE1,,Yes,,,
ADSL,235,ACY1SDTM,integer,8,Cycle 1 Start Datetime,,,,ADSLCOM.ACY1SDTM,,ADSLCMP.ACY1SDTM,,Yes,,,
ADSL,236,ACY1SDTF,text,1,Cycle 1 Start Date Imputation Flag,,,,ADSLCOM.ACY1SDTF,,ADSLCMP.ACY1SDTF,DATEFL,Yes,,,
ADSL,237,ACY1STMF,text,1,Cycle 1 Start Time Imputation Flag,,,,ADSLCOM.ACY1STMF,,ADSLCMP.ACY1STMF,TIMEFL,Yes,,,
ADSL,238,ACY1EDTM,integer,8,Cycle 1 End Datetime,,,,ADSLCOM.ACY1EDTM,,ADSLCMP.ACY1EDTM,,Yes,,,
ADSL,239,ACY1EDTF,text,1,Cycle 1 End Date Imputation Flag,,,,ADSLCOM.ACY1EDTF,,ADSLCMP.ACY1EDTF,DATEFL,Yes,,,
ADSL,240,ACY1ETMF,text,1,Cycle 1 End Time Imputation Flag,,,,ADSLCOM.ACY1ETMF,,ADSLCMP.ACY1ETMF,TIMEFL,Yes,,,
ADSL,241,ACYCLE2,text,40,Description of Cycle 2,,,,ADSLCOM.ACYCLE2,,ADSLCMP.ACYCLE2,,Yes,,,
ADSL,242,ACY2SDTM,integer,8,Cycle 2 Start Datetime,,,,ADSLCOM.ACY2SDTM,,ADSLCMP.ACY2SDTM,,Yes,,,
ADSL,243,ACY2SDTF,text,1,Cycle 2 Start Date Imputation Flag,,,,ADSLCOM.ACY2SDTF,,ADSLCMP.ACY2SDTF,DATEFL,Yes,,,
ADSL,244,ACY2STMF,text,1,Cycle 2 Start Time Imputation Flag,,,,ADSLCOM.ACY2STMF,,ADSLCMP.ACY2STMF,TIMEFL,Yes,,,
ADSL,245,ACY2EDTM,integer,8,Cycle 2 End Datetime,,,,ADSLCOM.ACY2EDTM,,ADSLCMP.ACY2EDTM,,Yes,,,
ADSL,246,ACY2EDTF,text,1,Cycle 2 End Date Imputation Flag,,,,ADSLCOM.ACY2EDTF,,ADSLCMP.ACY2EDTF,DATEFL,Yes,,,
ADSL,247,ACY2ETMF,text,1,Cycle 2 End Time Imputation Flag,,,,ADSLCOM.ACY2ETMF,,ADSLCMP.ACY2ETMF,TIMEFL,Yes,,,
ADSL,248,ACYCLE3,text,40,Description of Cycle 3,,,,ADSLCOM.ACYCLE3,,ADSLCMP.ACYCLE3,,Yes,,,
ADSL,249,ACY3SDTM,integer,8,Cycle 3 Start Datetime,,,,ADSLCOM.ACY3SDTM,,ADSLCMP.ACY3SDTM,,Yes,,,
ADSL,250,ACY3SDTF,text,1,Cycle 3 Start Date Imputation Flag,,,,ADSLCOM.ACY3SDTF,,ADSLCMP.ACY3SDTF,DATEFL,Yes,,,
ADSL,251,ACY3STMF,text,1,Cycle 3 Start Time Imputation Flag,,,,ADSLCOM.ACY3STMF,,ADSLCMP.ACY3STMF,TIMEFL,Yes,,,
ADSL,252,ACY3EDTM,integer,8,Cycle 3 End Datetime,,,,ADSLCOM.ACY3EDTM,,ADSLCMP.ACY3EDTM,,Yes,,,
ADSL,253,ACY3EDTF,text,1,Cycle 3 End Date Imputation Flag,,,,ADSLCOM.ACY3EDTF,,ADSLCMP.ACY3EDTF,DATEFL,Yes,,,
ADSL,254,ACY3ETMF,text,1,Cycle 3 End Time Imputation Flag,,,,ADSLCOM.ACY3ETMF,,ADSLCMP.ACY3ETMF,TIMEFL,Yes,,,
ADSL,255,ACYCLE4,text,40,Description of Cycle 4,,,,ADSLCOM.ACYCLE4,,ADSLCMP.ACYCLE4,,Yes,,,
ADSL,256,ACY4SDTM,integer,8,Cycle 4 Start Datetime,,,,ADSLCOM.ACY4SDTM,,ADSLCMP.ACY4SDTM,,Yes,,,
ADSL,257,ACY4SDTF,text,1,Cycle 4 Start Date Imputation Flag,,,,ADSLCOM.ACY4SDTF,,ADSLCMP.ACY4SDTF,DATEFL,Yes,,,
ADSL,258,ACY4STMF,text,1,Cycle 4 Start Time Imputation Flag,,,,ADSLCOM.ACY4STMF,,ADSLCMP.ACY4STMF,TIMEFL,Yes,,,
ADSL,259,ACY4EDTM,integer,8,Cycle 4 End Datetime,,,,ADSLCOM.ACY4EDTM,,ADSLCMP.ACY4EDTM,,Yes,,,
ADSL,260,ACY4EDTF,text,1,Cycle 4 End Date Imputation Flag,,,,ADSLCOM.ACY4EDTF,,ADSLCMP.ACY4EDTF,DATEFL,Yes,,,
ADSL,261,ACY4ETMF,text,1,Cycle 4 End Time Imputation Flag,,,,ADSLCOM.ACY4ETMF,,ADSLCMP.ACY4ETMF,TIMEFL,Yes,,,
ADSL,262,ACYCLE5,text,40,Description of Cycle 5,,,,ADSLCOM.ACYCLE5,,ADSLCMP.ACYCLE5,,Yes,,,
ADSL,263,ACY5SDTM,integer,8,Cycle 5 Start Datetime,,,,ADSLCOM.ACY5SDTM,,ADSLCMP.ACY5SDTM,,Yes,,,
ADSL,264,ACY5SDTF,text,1,Cycle 5 Start Date Imputation Flag,,,,ADSLCOM.ACY5SDTF,,ADSLCMP.ACY5SDTF,DATEFL,Yes,,,
ADSL,265,ACY5STMF,text,1,Cycle 5 Start Time Imputation Flag,,,,ADSLCOM.ACY5STMF,,ADSLCMP.ACY5STMF,TIMEFL,Yes,,,
ADSL,266,ACY5EDTM,integer,8,Cycle 5 End Datetime,,,,ADSLCOM.ACY5EDTM,,ADSLCMP.ACY5EDTM,,Yes,,,
ADSL,267,ACY5EDTF,text,1,Cycle 5 End Date Imputation Flag,,,,ADSLCOM.ACY5EDTF,,ADSLCMP.ACY5EDTF,DATEFL,Yes,,,
ADSL,268,ACY5ETMF,text,1,Cycle 5 End Time Imputation Flag,,,,ADSLCOM.ACY5ETMF,,ADSLCMP.ACY5ETMF,TIMEFL,Yes,,,
ADSL,269,ACYCLE6,text,40,Description of Cycle 6,,,,ADSLCOM.ACYCLE6,,ADSLCMP.ACYCLE6,,Yes,,,
ADSL,270,ACY6SDTM,integer,8,Cycle 6 Start Datetime,,,,ADSLCOM.ACY6SDTM,,ADSLCMP.ACY6SDTM,,Yes,,,
ADSL,271,ACY6SDTF,text,1,Cycle 6 Start Date Imputation Flag,,,,ADSLCOM.ACY6SDTF,,ADSLCMP.ACY6SDTF,DATEFL,Yes,,,
ADSL,272,ACY6STMF,text,1,Cycle 6 Start Time Imputation Flag,,,,ADSLCOM.ACY6STMF,,ADSLCMP.ACY6STMF,TIMEFL,Yes,,,
ADSL,273,ACY6EDTM,integer,8,Cycle 6 End Datetime,,,,ADSLCOM.ACY6EDTM,,ADSLCMP.ACY6EDTM,,Yes,,,
ADSL,274,ACY6EDTF,text,1,Cycle 6 End Date Imputation Flag,,,,ADSLCOM.ACY6EDTF,,ADSLCMP.ACY6EDTF,DATEFL,Yes,,,
ADSL,275,ACY6ETMF,text,1,Cycle 6 End Time Imputation Flag,,,,ADSLCOM.ACY6ETMF,,ADSLCMP.ACY6ETMF,TIMEFL,Yes,,,
ADSL,276,ACYCLE7,text,40,Description of Cycle 7,,,,ADSLCOM.ACYCLE7,,ADSLCMP.ACYCLE7,,Yes,,,
ADSL,277,ACY7SDTM,integer,8,Cycle 7 Start Datetime,,,,ADSLCOM.ACY7SDTM,,ADSLCMP.ACY7SDTM,,Yes,,,
ADSL,278,ACY7SDTF,text,1,Cycle 7 Start Date Imputation Flag,,,,ADSLCOM.ACY7SDTF,,ADSLCMP.ACY7SDTF,DATEFL,Yes,,,
ADSL,279,ACY7STMF,text,1,Cycle 7 Start Time Imputation Flag,,,,ADSLCOM.ACY7STMF,,ADSLCMP.ACY7STMF,TIMEFL,Yes,,,
ADSL,280,ACY7EDTM,integer,8,Cycle 7 End Datetime,,,,ADSLCOM.ACY7EDTM,,ADSLCMP.ACY7EDTM,,Yes,,,
ADSL,281,ACY7EDTF,text,1,Cycle 7 End Date Imputation Flag,,,,ADSLCOM.ACY7EDTF,,ADSLCMP.ACY7EDTF,DATEFL,Yes,,,
ADSL,282,ACY7ETMF,text,1,Cycle 7 End Time Imputation Flag,,,,ADSLCOM.ACY7ETMF,,ADSLCMP.ACY7ETMF,TIMEFL,Yes,,,
ADSL,283,ACYCLE8,text,40,Description of Cycle 8,,,,ADSLCOM.ACYCLE8,,ADSLCMP.ACYCLE8,,Yes,,,
ADSL,284,ACY8SDTM,integer,8,Cycle 8 Start Datetime,,,,ADSLCOM.ACY8SDTM,,ADSLCMP.ACY8SDTM,,Yes,,,
ADSL,285,ACY8SDTF,text,1,Cycle 8 Start Date Imputation Flag,,,,ADSLCOM.ACY8SDTF,,ADSLCMP.ACY8SDTF,DATEFL,Yes,,,
ADSL,286,ACY8STMF,text,1,Cycle 8 Start Time Imputation Flag,,,,ADSLCOM.ACY8STMF,,ADSLCMP.ACY8STMF,TIMEFL,Yes,,,
ADSL,287,ACY8EDTM,integer,8,Cycle 8 End Datetime,,,,ADSLCOM.ACY8EDTM,,ADSLCMP.ACY8EDTM,,Yes,,,
ADSL,288,ACY8EDTF,text,1,Cycle 8 End Date Imputation Flag,,,,ADSLCOM.ACY8EDTF,,ADSLCMP.ACY8EDTF,DATEFL,Yes,,,
ADSL,289,ACY8ETMF,text,1,Cycle 8 End Time Imputation Flag,,,,ADSLCOM.ACY8ETMF,,ADSLCMP.ACY8ETMF,TIMEFL,Yes,,,
ADSL,290,ACYCLE9,text,40,Description of Cycle 9,,,,ADSLCOM.ACYCLE9,,ADSLCMP.ACYCLE9,,Yes,,,
ADSL,291,ACY9SDTM,integer,8,Cycle 9 Start Datetime,,,,ADSLCOM.ACY9SDTM,,ADSLCMP.ACY9SDTM,,Yes,,,
ADSL,292,ACY9SDTF,text,1,Cycle 9 Start Date Imputation Flag,,,,ADSLCOM.ACY9SDTF,,ADSLCMP.ACY9SDTF,DATEFL,Yes,,,
ADSL,293,ACY9STMF,text,1,Cycle 9 Start Time Imputation Flag,,,,ADSLCOM.ACY9STMF,,ADSLCMP.ACY9STMF,TIMEFL,Yes,,,
ADSL,294,ACY9EDTM,integer,8,Cycle 9 End Datetime,,,,ADSLCOM.ACY9EDTM,,ADSLCMP.ACY9EDTM,,Yes,,,
ADSL,295,ACY9EDTF,text,1,Cycle 9 End Date Imputation Flag,,,,ADSLCOM.ACY9EDTF,,ADSLCMP.ACY9EDTF,DATEFL,Yes,,,
ADSL,296,ACY9ETMF,text,1,Cycle 9 End Time Imputation Flag,,,,ADSLCOM.ACY9ETMF,,ADSLCMP.ACY9ETMF,TIMEFL,Yes,,,
ADSL,297,ACYCLE10,text,40,Description of Cycle 10,,,,ADSLCOM.ACYCLE10,,ADSLCMP.ACYCLE10,,Yes,,,
ADSL,298,ACY10SDM,integer,8,Cycle 10 Start Datetime,,,,ADSLCOM.ACY10SDM,,ADSLCMP.ACY10SDM,,Yes,,,
ADSL,299,ACY10SDF,text,1,Cycle 10 Start Date Imputation Flag,,,,ADSLCOM.ACY10SDF,,ADSLCMP.ACY10SDF,DATEFL,Yes,,,
ADSL,300,ACY10SMF,text,1,Cycle 10 Start Time Imputation Flag,,,,ADSLCOM.ACY10SMF,,ADSLCMP.ACY10SMF,TIMEFL,Yes,,,
ADSL,301,ACY10EDM,integer,8,Cycle 10 End Datetime,,,,ADSLCOM.ACY10EDM,,ADSLCMP.ACY10EDM,,Yes,,,
ADSL,302,ACY10EDF,text,1,Cycle 10 End Date Imputation Flag,,,,ADSLCOM.ACY10EDF,,ADSLCMP.ACY10EDF,DATEFL,Yes,,,
ADSL,303,ACY10EMF,text,1,Cycle 10 End Time Imputation Flag,,,,ADSLCOM.ACY10EMF,,ADSLCMP.ACY10EMF,TIMEFL,Yes,,,
ADSL,304,ACYCLE11,text,40,Description of Cycle 11,,,,ADSLCOM.ACYCLE11,,ADSLCMP.ACYCLE11,,Yes,,,
ADSL,305,ACY11SDM,integer,8,Cycle 11 Start Datetime,,,,ADSLCOM.ACY11SDM,,ADSLCMP.ACY11SDM,,Yes,,,
ADSL,306,ACY11SDF,text,1,Cycle 11 Start Date Imputation Flag,,,,ADSLCOM.ACY11SDF,,ADSLCMP.ACY11SDF,DATEFL,Yes,,,
ADSL,307,ACY11SMF,text,1,Cycle 11 Start Time Imputation Flag,,,,ADSLCOM.ACY11SMF,,ADSLCMP.ACY11SMF,TIMEFL,Yes,,,
ADSL,308,ACY11EDM,integer,8,Cycle 11 End Datetime,,,,ADSLCOM.ACY11EDM,,ADSLCMP.ACY11EDM,,Yes,,,
ADSL,309,ACY11EDF,text,1,Cycle 11 End Date Imputation Flag,,,,ADSLCOM.ACY11EDF,,ADSLCMP.ACY11EDF,DATEFL,Yes,,,
ADSL,310,ACY11EMF,text,1,Cycle 11 End Time Imputation Flag,,,,ADSLCOM.ACY11EMF,,ADSLCMP.ACY11EMF,TIMEFL,Yes,,,
ADSL,311,ACYCLE12,text,40,Description of Cycle 12,,,,ADSLCOM.ACYCLE12,,ADSLCMP.ACYCLE12,,Yes,,,
ADSL,312,ACY12SDM,integer,8,Cycle 12 Start Datetime,,,,ADSLCOM.ACY12SDM,,ADSLCMP.ACY12SDM,,Yes,,,
ADSL,313,ACY12SDF,text,1,Cycle 12 Start Date Imputation Flag,,,,ADSLCOM.ACY12SDF,,ADSLCMP.ACY12SDF,DATEFL,Yes,,,
ADSL,314,ACY12SMF,text,1,Cycle 12 Start Time Imputation Flag,,,,ADSLCOM.ACY12SMF,,ADSLCMP.ACY12SMF,TIMEFL,Yes,,,
ADSL,315,ACY12EDM,integer,8,Cycle 12 End Datetime,,,,ADSLCOM.ACY12EDM,,ADSLCMP.ACY12EDM,,Yes,,,
ADSL,316,ACY12EDF,text,1,Cycle 12 End Date Imputation Flag,,,,ADSLCOM.ACY12EDF,,ADSLCMP.ACY12EDF,DATEFL,Yes,,,
ADSL,317,ACY12EMF,text,1,Cycle 12 End Time Imputation Flag,,,,ADSLCOM.ACY12EMF,,ADSLCMP.ACY12EMF,TIMEFL,Yes,,,
ADSL,318,ACYCLE13,text,40,Description of Cycle 13,,,,ADSLCOM.ACYCLE13,,ADSLCMP.ACYCLE13,,Yes,,,
ADSL,319,ACY13SDM,integer,8,Cycle 13 Start Datetime,,,,ADSLCOM.ACY13SDM,,ADSLCMP.ACY13SDM,,Yes,,,
ADSL,320,ACY13SDF,text,1,Cycle 13 Start Date Imputation Flag,,,,ADSLCOM.ACY13SDF,,ADSLCMP.ACY13SDF,DATEFL,Yes,,,
ADSL,321,ACY13SMF,text,1,Cycle 13 Start Time Imputation Flag,,,,ADSLCOM.ACY13SMF,,ADSLCMP.ACY13SMF,TIMEFL,Yes,,,
ADSL,322,ACY13EDM,integer,8,Cycle 13 End Datetime,,,,ADSLCOM.ACY13EDM,,ADSLCMP.ACY13EDM,,Yes,,,
ADSL,323,ACY13EDF,text,1,Cycle 13 End Date Imputation Flag,,,,ADSLCOM.ACY13EDF,,ADSLCMP.ACY13EDF,DATEFL,Yes,,,
ADSL,324,ACY13EMF,text,1,Cycle 13 End Time Imputation Flag,,,,ADSLCOM.ACY13EMF,,ADSLCMP.ACY13EMF,TIMEFL,Yes,,,
ADSL,325,ACYCLE14,text,40,Description of Cycle 14,,,,ADSLCOM.ACYCLE14,,ADSLCMP.ACYCLE14,,Yes,,,
ADSL,326,ACY14SDM,integer,8,Cycle 14 Start Datetime,,,,ADSLCOM.ACY14SDM,,ADSLCMP.ACY14SDM,,Yes,,,
ADSL,327,ACY14SDF,text,1,Cycle 14 Start Date Imputation Flag,,,,ADSLCOM.ACY14SDF,,ADSLCMP.ACY14SDF,DATEFL,Yes,,,
ADSL,328,ACY14SMF,text,1,Cycle 14 Start Time Imputation Flag,,,,ADSLCOM.ACY14SMF,,ADSLCMP.ACY14SMF,TIMEFL,Yes,,,
ADSL,329,ACY14EDM,integer,8,Cycle 14 End Datetime,,,,ADSLCOM.ACY14EDM,,ADSLCMP.ACY14EDM,,Yes,,,
ADSL,330,ACY14EDF,text,1,Cycle 14 End Date Imputation Flag,,,,ADSLCOM.ACY14EDF,,ADSLCMP.ACY14EDF,DATEFL,Yes,,,
ADSL,331,ACY14EMF,text,1,Cycle 14 End Time Imputation Flag,,,,ADSLCOM.ACY14EMF,,ADSLCMP.ACY14EMF,TIMEFL,Yes,,,
ADSL,332,ACYCLE15,text,40,Description of Cycle 15,,,,ADSLCOM.ACYCLE15,,ADSLCMP.ACYCLE15,,Yes,,,
ADSL,333,ACY15SDM,integer,8,Cycle 15 Start Datetime,,,,ADSLCOM.ACY15SDM,,ADSLCMP.ACY15SDM,,Yes,,,
ADSL,334,ACY15SDF,text,1,Cycle 15 Start Date Imputation Flag,,,,ADSLCOM.ACY15SDF,,ADSLCMP.ACY15SDF,DATEFL,Yes,,,
ADSL,335,ACY15SMF,text,1,Cycle 15 Start Time Imputation Flag,,,,ADSLCOM.ACY15SMF,,ADSLCMP.ACY15SMF,TIMEFL,Yes,,,
ADSL,336,ACY15EDM,integer,8,Cycle 15 End Datetime,,,,ADSLCOM.ACY15EDM,,ADSLCMP.ACY15EDM,,Yes,,,
ADSL,337,ACY15EDF,text,1,Cycle 15 End Date Imputation Flag,,,,ADSLCOM.ACY15EDF,,ADSLCMP.ACY15EDF,DATEFL,Yes,,,
ADSL,338,ACY15EMF,text,1,Cycle 15 End Time Imputation Flag,,,,ADSLCOM.ACY15EMF,,ADSLCMP.ACY15EMF,TIMEFL,Yes,,,
ADSL,339,ACYCLE16,text,40,Description of Cycle 16,,,,ADSLCOM.ACYCLE16,,ADSLCMP.ACYCLE16,,Yes,,,
ADSL,340,ACY16SDM,integer,8,Cycle 16 Start Datetime,,,,ADSLCOM.ACY16SDM,,ADSLCMP.ACY16SDM,,Yes,,,
ADSL,341,ACY16SDF,text,1,Cycle 16 Start Date Imputation Flag,,,,ADSLCOM.ACY16SDF,,ADSLCMP.ACY16SDF,DATEFL,Yes,,,
ADSL,342,ACY16SMF,text,1,Cycle 16 Start Time Imputation Flag,,,,ADSLCOM.ACY16SMF,,ADSLCMP.ACY16SMF,TIMEFL,Yes,,,
ADSL,343,ACY16EDM,integer,8,Cycle 16 End Datetime,,,,ADSLCOM.ACY16EDM,,ADSLCMP.ACY16EDM,,Yes,,,
ADSL,344,ACY16EDF,text,1,Cycle 16 End Date Imputation Flag,,,,ADSLCOM.ACY16EDF,,ADSLCMP.ACY16EDF,DATEFL,Yes,,,
ADSL,345,ACY16EMF,text,1,Cycle 16 End Time Imputation Flag,,,,ADSLCOM.ACY16EMF,,ADSLCMP.ACY16EMF,TIMEFL,Yes,,,
ADSL,346,ACYCLE17,text,40,Description of Cycle 17,,,,ADSLCOM.ACYCLE17,,ADSLCMP.ACYCLE17,,Yes,,,
ADSL,347,ACY17SDM,integer,8,Cycle 17 Start Datetime,,,,ADSLCOM.ACY17SDM,,ADSLCMP.ACY17SDM,,Yes,,,
ADSL,348,ACY17SDF,text,1,Cycle 17 Start Date Imputation Flag,,,,ADSLCOM.ACY17SDF,,ADSLCMP.ACY17SDF,DATEFL,Yes,,,
ADSL,349,ACY17SMF,text,1,Cycle 17 Start Time Imputation Flag,,,,ADSLCOM.ACY17SMF,,ADSLCMP.ACY17SMF,TIMEFL,Yes,,,
ADSL,350,ACY17EDM,integer,8,Cycle 17 End Datetime,,,,ADSLCOM.ACY17EDM,,ADSLCMP.ACY17EDM,,Yes,,,
ADSL,351,ACY17EDF,text,1,Cycle 17 End Date Imputation Flag,,,,ADSLCOM.ACY17EDF,,ADSLCMP.ACY17EDF,DATEFL,Yes,,,
ADSL,352,ACY17EMF,text,1,Cycle 17 End Time Imputation Flag,,,,ADSLCOM.ACY17EMF,,ADSLCMP.ACY17EMF,TIMEFL,Yes,,,
ADSL,353,ACYCLE18,text,40,Description of Cycle 18,,,,ADSLCOM.ACYCLE18,,ADSLCMP.ACYCLE18,,Yes,,,
ADSL,354,ACY18SDM,integer,8,Cycle 18 Start Datetime,,,,ADSLCOM.ACY18SDM,,ADSLCMP.ACY18SDM,,Yes,,,
ADSL,355,ACY18SDF,text,1,Cycle 18 Start Date Imputation Flag,,,,ADSLCOM.ACY18SDF,,ADSLCMP.ACY18SDF,DATEFL,Yes,,,
ADSL,356,ACY18SMF,text,1,Cycle 18 Start Time Imputation Flag,,,,ADSLCOM.ACY18SMF,,ADSLCMP.ACY18SMF,TIMEFL,Yes,,,
ADSL,357,ACY18EDM,integer,8,Cycle 18 End Datetime,,,,ADSLCOM.ACY18EDM,,ADSLCMP.ACY18EDM,,Yes,,,
ADSL,358,ACY18EDF,text,1,Cycle 18 End Date Imputation Flag,,,,ADSLCOM.ACY18EDF,,ADSLCMP.ACY18EDF,DATEFL,Yes,,,
ADSL,359,ACY18EMF,text,1,Cycle 18 End Time Imputation Flag,,,,ADSLCOM.ACY18EMF,,ADSLCMP.ACY18EMF,TIMEFL,Yes,,,
ADSL,360,ACYCLE19,text,40,Description of Cycle 19,,,,ADSLCOM.ACYCLE19,,ADSLCMP.ACYCLE19,,Yes,,,
ADSL,361,ACY19SDM,integer,8,Cycle 19 Start Datetime,,,,ADSLCOM.ACY19SDM,,ADSLCMP.ACY19SDM,,Yes,,,
ADSL,362,ACY19SDF,text,1,Cycle 19 Start Date Imputation Flag,,,,ADSLCOM.ACY19SDF,,ADSLCMP.ACY19SDF,DATEFL,Yes,,,
ADSL,363,ACY19SMF,text,1,Cycle 19 Start Time Imputation Flag,,,,ADSLCOM.ACY19SMF,,ADSLCMP.ACY19SMF,TIMEFL,Yes,,,
ADSL,364,ACY19EDM,integer,8,Cycle 19 End Datetime,,,,ADSLCOM.ACY19EDM,,ADSLCMP.ACY19EDM,,Yes,,,
ADSL,365,ACY19EDF,text,1,Cycle 19 End Date Imputation Flag,,,,ADSLCOM.ACY19EDF,,ADSLCMP.ACY19EDF,DATEFL,Yes,,,
ADSL,366,ACY19EMF,text,1,Cycle 19 End Time Imputation Flag,,,,ADSLCOM.ACY19EMF,,ADSLCMP.ACY19EMF,TIMEFL,Yes,,,
ADSL,367,ACYCLE20,text,40,Description of Cycle 20,,,,ADSLCOM.ACYCLE20,,ADSLCMP.ACYCLE20,,Yes,,,
ADSL,368,ACY20SDM,integer,8,Cycle 20 Start Datetime,,,,ADSLCOM.ACY20SDM,,ADSLCMP.ACY20SDM,,Yes,,,
ADSL,369,ACY20SDF,text,1,Cycle 20 Start Date Imputation Flag,,,,ADSLCOM.ACY20SDF,,ADSLCMP.ACY20SDF,DATEFL,Yes,,,
ADSL,370,ACY20SMF,text,1,Cycle 20 Start Time Imputation Flag,,,,ADSLCOM.ACY20SMF,,ADSLCMP.ACY20SMF,TIMEFL,Yes,,,
ADSL,371,ACY20EDM,integer,8,Cycle 20 End Datetime,,,,ADSLCOM.ACY20EDM,,ADSLCMP.ACY20EDM,,Yes,,,
ADSL,372,ACY20EDF,text,1,Cycle 20 End Date Imputation Flag,,,,ADSLCOM.ACY20EDF,,ADSLCMP.ACY20EDF,DATEFL,Yes,,,
ADSL,373,ACY20EMF,text,1,Cycle 20 End Time Imputation Flag,,,,ADSLCOM.ACY20EMF,,ADSLCMP.ACY20EMF,TIMEFL,Yes,,,
ADSL,374,ACYCLE21,text,40,Description of Cycle 21,,,,ADSLCOM.ACYCLE21,,ADSLCMP.ACYCLE21,,Yes,,,
ADSL,375,ACY21SDM,integer,8,Cycle 21 Start Datetime,,,,ADSLCOM.ACY21SDM,,ADSLCMP.ACY21SDM,,Yes,,,
ADSL,376,ACY21SDF,text,1,Cycle 21 Start Date Imputation Flag,,,,ADSLCOM.ACY21SDF,,ADSLCMP.ACY21SDF,DATEFL,Yes,,,
ADSL,377,ACY21SMF,text,1,Cycle 21 Start Time Imputation Flag,,,,ADSLCOM.ACY21SMF,,ADSLCMP.ACY21SMF,TIMEFL,Yes,,,
ADSL,378,ACY21EDM,integer,8,Cycle 21 End Datetime,,,,ADSLCOM.ACY21EDM,,ADSLCMP.ACY21EDM,,Yes,,,
ADSL,379,ACY21EDF,text,1,Cycle 21 End Date Imputation Flag,,,,ADSLCOM.ACY21EDF,,ADSLCMP.ACY21EDF,DATEFL,Yes,,,
ADSL,380,ACY21EMF,text,1,Cycle 21 End Time Imputation Flag,,,,ADSLCOM.ACY21EMF,,ADSLCMP.ACY21EMF,TIMEFL,Yes,,,
ADSL,381,ACYCLE22,text,40,Description of Cycle 22,,,,ADSLCOM.ACYCLE22,,ADSLCMP.ACYCLE22,,Yes,,,
ADSL,382,ACY22SDM,integer,8,Cycle 22 Start Datetime,,,,ADSLCOM.ACY22SDM,,ADSLCMP.ACY22SDM,,Yes,,,
ADSL,383,ACY22SDF,text,1,Cycle 22 Start Date Imputation Flag,,,,ADSLCOM.ACY22SDF,,ADSLCMP.ACY22SDF,DATEFL,Yes,,,
ADSL,384,ACY22SMF,text,1,Cycle 22 Start Time Imputation Flag,,,,ADSLCOM.ACY22SMF,,ADSLCMP.ACY22SMF,TIMEFL,Yes,,,
ADSL,385,ACY22EDM,integer,8,Cycle 22 End Datetime,,,,ADSLCOM.ACY22EDM,,ADSLCMP.ACY22EDM,,Yes,,,
ADSL,386,ACY22EDF,text,1,Cycle 22 End Date Imputation Flag,,,,ADSLCOM.ACY22EDF,,ADSLCMP.ACY22EDF,DATEFL,Yes,,,
ADSL,387,ACY22EMF,text,1,Cycle 22 End Time Imputation Flag,,,,ADSLCOM.ACY22EMF,,ADSLCMP.ACY22EMF,TIMEFL,Yes,,,
ADSL,388,ACYCLE23,text,40,Description of Cycle 23,,,,ADSLCOM.ACYCLE23,,ADSLCMP.ACYCLE23,,Yes,,,
ADSL,389,ACY23SDM,integer,8,Cycle 23 Start Datetime,,,,ADSLCOM.ACY23SDM,,ADSLCMP.ACY23SDM,,Yes,,,
ADSL,390,ACY23SDF,text,1,Cycle 23 Start Date Imputation Flag,,,,ADSLCOM.ACY23SDF,,ADSLCMP.ACY23SDF,DATEFL,Yes,,,
ADSL,391,ACY23SMF,text,1,Cycle 23 Start Time Imputation Flag,,,,ADSLCOM.ACY23SMF,,ADSLCMP.ACY23SMF,TIMEFL,Yes,,,
ADSL,392,ACY23EDM,integer,8,Cycle 23 End Datetime,,,,ADSLCOM.ACY23EDM,,ADSLCMP.ACY23EDM,,Yes,,,
ADSL,393,ACY23EDF,text,1,Cycle 23 End Date Imputation Flag,,,,ADSLCOM.ACY23EDF,,ADSLCMP.ACY23EDF,DATEFL,Yes,,,
ADSL,394,ACY23EMF,text,1,Cycle 23 End Time Imputation Flag,,,,ADSLCOM.ACY23EMF,,ADSLCMP.ACY23EMF,TIMEFL,Yes,,,
ADSL,395,ACYCLE24,text,40,Description of Cycle 24,,,,ADSLCOM.ACYCLE24,,ADSLCMP.ACYCLE24,,Yes,,,
ADSL,396,ACY24SDM,integer,8,Cycle 24 Start Datetime,,,,ADSLCOM.ACY24SDM,,ADSLCMP.ACY24SDM,,Yes,,,
ADSL,397,ACY24SDF,text,1,Cycle 24 Start Date Imputation Flag,,,,ADSLCOM.ACY24SDF,,ADSLCMP.ACY24SDF,DATEFL,Yes,,,
ADSL,398,ACY24SMF,text,1,Cycle 24 Start Time Imputation Flag,,,,ADSLCOM.ACY24SMF,,ADSLCMP.ACY24SMF,TIMEFL,Yes,,,
ADSL,399,ACY24EDM,integer,8,Cycle 24 End Datetime,,,,ADSLCOM.ACY24EDM,,ADSLCMP.ACY24EDM,,Yes,,,
ADSL,400,ACY24EDF,text,1,Cycle 24 End Date Imputation Flag,,,,ADSLCOM.ACY24EDF,,ADSLCMP.ACY24EDF,DATEFL,Yes,,,
ADSL,401,ACY24EMF,text,1,Cycle 24 End Time Imputation Flag,,,,ADSLCOM.ACY24EMF,,ADSLCMP.ACY24EMF,TIMEFL,Yes,,,
ADSL,402,ACYCLE25,text,40,Description of Cycle 25,,,,ADSLCOM.ACYCLE25,,ADSLCMP.ACYCLE25,,Yes,,,
ADSL,403,ACY25SDM,integer,8,Cycle 25 Start Datetime,,,,ADSLCOM.ACY25SDM,,ADSLCMP.ACY25SDM,,Yes,,,
ADSL,404,ACY25SDF,text,1,Cycle 25 Start Date Imputation Flag,,,,ADSLCOM.ACY25SDF,,ADSLCMP.ACY25SDF,DATEFL,Yes,,,
ADSL,405,ACY25SMF,text,1,Cycle 25 Start Time Imputation Flag,,,,ADSLCOM.ACY25SMF,,ADSLCMP.ACY25SMF,TIMEFL,Yes,,,
ADSL,406,ACY25EDM,integer,8,Cycle 25 End Datetime,,,,ADSLCOM.ACY25EDM,,ADSLCMP.ACY25EDM,,Yes,,,
ADSL,407,ACY25EDF,text,1,Cycle 25 End Date Imputation Flag,,,,ADSLCOM.ACY25EDF,,ADSLCMP.ACY25EDF,DATEFL,Yes,,,
ADSL,408,ACY25EMF,text,1,Cycle 25 End Time Imputation Flag,,,,ADSLCOM.ACY25EMF,,ADSLCMP.ACY25EMF,TIMEFL,Yes,,,
ADSL,409,ACYCLE26,text,40,Description of Cycle 26,,,,ADSLCOM.ACYCLE26,,ADSLCMP.ACYCLE26,,Yes,,,
ADSL,410,ACY26SDM,integer,8,Cycle 26 Start Datetime,,,,ADSLCOM.ACY26SDM,,ADSLCMP.ACY26SDM,,Yes,,,
ADSL,411,ACY26SDF,text,1,Cycle 26 Start Date Imputation Flag,,,,ADSLCOM.ACY26SDF,,ADSLCMP.ACY26SDF,DATEFL,Yes,,,
ADSL,412,ACY26SMF,text,1,Cycle 26 Start Time Imputation Flag,,,,ADSLCOM.ACY26SMF,,ADSLCMP.ACY26SMF,TIMEFL,Yes,,,
ADSL,413,ACY26EDM,integer,8,Cycle 26 End Datetime,,,,ADSLCOM.ACY26EDM,,ADSLCMP.ACY26EDM,,Yes,,,
ADSL,414,ACY26EDF,text,1,Cycle 26 End Date Imputation Flag,,,,ADSLCOM.ACY26EDF,,ADSLCMP.ACY26EDF,DATEFL,Yes,,,
ADSL,415,ACY26EMF,text,1,Cycle 26 End Time Imputation Flag,,,,ADSLCOM.ACY26EMF,,ADSLCMP.ACY26EMF,TIMEFL,Yes,,,
ADSL,416,ACYCLE27,text,40,Description of Cycle 27,,,,ADSLCOM.ACYCLE27,,ADSLCMP.ACYCLE27,,Yes,,,
ADSL,417,ACY27SDM,integer,8,Cycle 27 Start Datetime,,,,ADSLCOM.ACY27SDM,,ADSLCMP.ACY27SDM,,Yes,,,
ADSL,418,ACY27SDF,text,1,Cycle 27 Start Date Imputation Flag,,,,ADSLCOM.ACY27SDF,,ADSLCMP.ACY27SDF,DATEFL,Yes,,,
ADSL,419,ACY27SMF,text,1,Cycle 27 Start Time Imputation Flag,,,,ADSLCOM.ACY27SMF,,ADSLCMP.ACY27SMF,TIMEFL,Yes,,,
ADSL,420,ACY27EDM,integer,8,Cycle 27 End Datetime,,,,ADSLCOM.ACY27EDM,,ADSLCMP.ACY27EDM,,Yes,,,
ADSL,421,ACY27EDF,text,1,Cycle 27 End Date Imputation Flag,,,,ADSLCOM.ACY27EDF,,ADSLCMP.ACY27EDF,DATEFL,Yes,,,
ADSL,422,ACY27EMF,text,1,Cycle 27 End Time Imputation Flag,,,,ADSLCOM.ACY27EMF,,ADSLCMP.ACY27EMF,TIMEFL,Yes,,,
ADSL,423,ACYCLE28,text,40,Description of Cycle 28,,,,ADSLCOM.ACYCLE28,,ADSLCMP.ACYCLE28,,Yes,,,
ADSL,424,ACY28SDM,integer,8,Cycle 28 Start Datetime,,,,ADSLCOM.ACY28SDM,,ADSLCMP.ACY28SDM,,Yes,,,
ADSL,425,ACY28SDF,text,1,Cycle 28 Start Date Imputation Flag,,,,ADSLCOM.ACY28SDF,,ADSLCMP.ACY28SDF,DATEFL,Yes,,,
ADSL,426,ACY28SMF,text,1,Cycle 28 Start Time Imputation Flag,,,,ADSLCOM.ACY28SMF,,ADSLCMP.ACY28SMF,TIMEFL,Yes,,,
ADSL,427,ACY28EDM,integer,8,Cycle 28 End Datetime,,,,ADSLCOM.ACY28EDM,,ADSLCMP.ACY28EDM,,Yes,,,
ADSL,428,ACY28EDF,text,1,Cycle 28 End Date Imputation Flag,,,,ADSLCOM.ACY28EDF,,ADSLCMP.ACY28EDF,DATEFL,Yes,,,
ADSL,429,ACY28EMF,text,1,Cycle 28 End Time Imputation Flag,,,,ADSLCOM.ACY28EMF,,ADSLCMP.ACY28EMF,TIMEFL,Yes,,,
ADSL,430,ACYCLE29,text,40,Description of Cycle 29,,,,ADSLCOM.ACYCLE29,,ADSLCMP.ACYCLE29,,Yes,,,
ADSL,431,ACY29SDM,integer,8,Cycle 29 Start Datetime,,,,ADSLCOM.ACY29SDM,,ADSLCMP.ACY29SDM,,Yes,,,
ADSL,432,ACY29SDF,text,1,Cycle 29 Start Date Imputation Flag,,,,ADSLCOM.ACY29SDF,,ADSLCMP.ACY29SDF,DATEFL,Yes,,,
ADSL,433,ACY29SMF,text,1,Cycle 29 Start Time Imputation Flag,,,,ADSLCOM.ACY29SMF,,ADSLCMP.ACY29SMF,TIMEFL,Yes,,,
ADSL,434,ACY29EDM,integer,8,Cycle 29 End Datetime,,,,ADSLCOM.ACY29EDM,,ADSLCMP.ACY29EDM,,Yes,,,
ADSL,435,ACY29EDF,text,1,Cycle 29 End Date Imputation Flag,,,,ADSLCOM.ACY29EDF,,ADSLCMP.ACY29EDF,DATEFL,Yes,,,
ADSL,436,ACY29EMF,text,1,Cycle 29 End Time Imputation Flag,,,,ADSLCOM.ACY29EMF,,ADSLCMP.ACY29EMF,TIMEFL,Yes,,,
ADSL,437,ACYCLE30,text,40,Description of Cycle 30,,,,ADSLCOM.ACYCLE30,,ADSLCMP.ACYCLE30,,Yes,,,
ADSL,438,ACY30SDM,integer,8,Cycle 30 Start Datetime,,,,ADSLCOM.ACY30SDM,,ADSLCMP.ACY30SDM,,Yes,,,
ADSL,439,ACY30SDF,text,1,Cycle 30 Start Date Imputation Flag,,,,ADSLCOM.ACY30SDF,,ADSLCMP.ACY30SDF,DATEFL,Yes,,,
ADSL,440,ACY30SMF,text,1,Cycle 30 Start Time Imputation Flag,,,,ADSLCOM.ACY30SMF,,ADSLCMP.ACY30SMF,TIMEFL,Yes,,,
ADSL,441,ACY30EDM,integer,8,Cycle 30 End Datetime,,,,ADSLCOM.ACY30EDM,,ADSLCMP.ACY30EDM,,Yes,,,
ADSL,442,ACY30EDF,text,1,Cycle 30 End Date Imputation Flag,,,,ADSLCOM.ACY30EDF,,ADSLCMP.ACY30EDF,DATEFL,Yes,,,
ADSL,443,ACY30EMF,text,1,Cycle 30 End Time Imputation Flag,,,,ADSLCOM.ACY30EMF,,ADSLCMP.ACY30EMF,TIMEFL,Yes,,,
ADSL,444,EOSSTT,text,20,End of Study Status,,,,ADSLCOM.EOSSTT,,ADSLCMP.EOSSTT,,Yes,,,
ADSL,445,EOSDT,integer,8,End of Study Date,,,,ADSLCOM.EOSDT,,ADSLCMP.EOSDT,,Yes,,,
ADSL,446,DCSREAS,text,40,Reason for Discontinuation from Study,,,,ADSLCOM.DCSREAS,,ADSLCMP.DCSREAS,,Yes,,,
ADSL,447,DCSREASP,text,40,Reason Spec for Discont from Study,,,,ADSLCOM.DCSREASP,,ADSLCMP.DCSREASP,,No,,,
ADSL,448,EOTSTT,text,20,End of Treatment Status,,,,ADSLCOM.EOTSTT,,ADSLCMP.EOTSTT,,Yes,,,
ADSL,449,DCTREAS,text,40,Reason for Discontinuation of Treatment,,,,ADSLCOM.DCTREAS,,ADSLCMP.DCTREAS,,Yes,,,
ADSL,450,DCTREASP,text,40,Reason Specify for Discont of Treatment,,,,ADSLCOM.DCTREASP,,ADSLCMP.DCTREASP,,Yes,,,
ADSL,451,EOT01STT,text,20,End of Treatment Status in Period 01,,,,ADSLCOM.EOT01STT,,ADSLCMP.EOT01STT,,No,,,
ADSL,452,DCT01RS,text,40,Reason for Discont of Treat in Period 01,,,,ADSLCOM.DCT01RS,,ADSLCMP.DCT01RS,,No,,,
ADSL,453,DCT01RSP,text,40,Reason Spec for Disc of Trt in Period 01,,,,ADSLCOM.DCT01RSP,,ADSLCMP.DCT01RSP,,No,,,
ADSL,454,EOP01STT,text,20,End of Period 01 Status,,,,ADSLCOM.EOP01STT,,ADSLCMP.EOP01STT,,No,,,
ADSL,455,DCP01RS,text,40,Reason for Discont from Period 01,,,,ADSLCOM.DCP01RS,,ADSLCMP.DCP01RS,,No,,,
ADSL,456,DCP01RSP,text,40,Reason Spec for Discont from Period 01,,,,ADSLCOM.DCP01RSP,,ADSLCMP.DCP01RSP,,No,,,
ADSL,457,RFICDT,integer,8,Date of Informed Consent,,,DM.RFICDTC,ADSLCOM.RFICDT,,ADSLCMP.RFICDT,,Yes,,,
ADSL,458,ENRLDT,integer,8,Date of Enrollment,,,,ADSLCOM.ENRLDT,,ADSLCMP.ENRLDT,,No,,,
ADSL,459,RANDDT,integer,8,Date of Randomization,,,,ADSLCOM.RANDDT,,ADSLCMP.RANDDT,,Yes,,,
ADSL,460,RFIC1DT,integer,8,Date of Informed Consent 1,,,,ADSLCOM.RFIC1DT,,ADSLCMP.RFIC1DT,,No,,,
ADSL,461,ENRL1DT,integer,8,Date of Enrollment 1,,,,ADSLCOM.ENRL1DT,,ADSLCMP.ENRL1DT,,No,,,
ADSL,462,RAND1DT,integer,8,Date of Randomization 1,,,,ADSLCOM.RAND1DT,,ADSLCMP.RAND1DT,,No,,,
ADSL,463,LSTALVDT,integer,8,Date Last Known Alive,,,,ADSLCOM.LSTALVDT,,ADSLCMP.LSTALVDT,,Yes,,,
ADSL,464,TRCMP,integer,8,Treatment Compliance (%),,,,ADSLCOM.TRCMP,,ADSLCMP.TRCMP,,No,,,
ADSL,465,TRCMPG1,integer,8,Treatment Compliance (%) Group 1,,,,ADSLCOM.TRCMPG1,,ADSLCMP.TRCMPG1,,No,,,
ADSL,466,TRCMPG1N,integer,8,Treatment Compliance (%) Group 1 (N),,,,ADSLCOM.TRCMPG1N,,ADSLCMP.TRCMPG1N,,No,,,
ADSL,467,TR01DURD,integer,8,Treatment Duration in Period 01 (Days),,,,ADSLCOM.TR01DURD,,ADSLCMP.TR01DURD,,No,,,
ADSL,468,TR01DURM,integer,8,Treatment Duration in Period 01 (Months),,,,ADSLCOM.TR01DURM,,ADSLCMP.TR01DURM,,No,,,
ADSL,469,TR01DURY,integer,8,Treatment Duration in Period 01 (Years),,,,ADSLCOM.TR01DURY,,ADSLCMP.TR01DURY,,No,,,
ADSL,470,TRTDURD,integer,8,Total Treatment Duration (Days),,,,ADSLCOM.TRTDURD,,ADSLCMP.TRTDURD,,Yes,,,
ADSL,471,TRTDURM,integer,8,Total Treatment Duration (Months),,,,ADSLCOM.TRTDURM,,ADSLCMP.TRTDURM,,No,,,
ADSL,472,TRTDURY,integer,8,Total Treatment Duration (Years),,,,ADSLCOM.TRTDURY,,ADSLCMP.TRTDURY,,No,,,
ADSL,473,DTHDT,integer,8,Date of Death,,,DM.DTHDTC,ADSLCOM.DTHDT,,ADSLCMP.DTHDT,,Yes,,,
ADSL,474,DTHDTF,text,1,Date of Death Imputation Flag,,,,ADSLCOM.DTHDTF,,ADSLCMP.DTHDTF,,Yes,,,
ADSL,475,DTHCAUS,text,40,Cause of Death,,,,ADSLCOM.DTHCAUS,,ADSLCMP.DTHCAUS,,Yes,,,
ADSL,476,DTHCAUSN,integer,8,Cause of Death (N),,,,ADSLCOM.DTHCAUSN,,ADSLCMP.DTHCAUSN,,Yes,,,
ADSL,477,DTHCGR1,text,40,Cause of Death Group 1,,,,ADSLCOM.DTHCGR1,,ADSLCMP.DTHCGR1,,No,,,
ADSL,478,DTHCGR1N,integer,8,Cause of Death Group y (N),,,,ADSLCOM.DTHCGR1N,,ADSLCMP.DTHCGR1N,,No,,,
ADSL,479,STRATAR,text,100,Strata Used for Randomization,,,,ADSLCOM.STRATAR,,ADSLCMP.STRATAR,,Yes,,,
ADSL,480,STRATARN,integer,8,Strata Used for Randomization (N),,,,ADSLCOM.STRATARN,,ADSLCMP.STRATARN,,Yes,,,
ADSL,481,STRAT1D,text,40,Description of Stratification Factor 1,,,,ADSLCOM.STRAT1D,,ADSLCMP.STRAT1D,,Yes,,,
ADSL,482,STRAT1R,text,40,Strat Factor 1 Value Used for Rand,,,,ADSLCOM.STRAT1R,,ADSLCMP.STRAT1R,,Yes,,,
ADSL,483,STRAT1RN,text,40,Strat Factor 1 Value Used for Rand,,,,ADSLCOM.STRAT1RN,,ADSLCMP.STRAT1RN,,Yes,,,
ADSL,484,STRAT2D,text,40,Description of Stratification Factor 2,,,,ADSLCOM.STRAT2D,,ADSLCMP.STRAT2D,,Yes,,,
ADSL,485,STRAT2R,text,40,Strat Factor 2 Value Used for Rand,,,,ADSLCOM.STRAT2R,,ADSLCMP.STRAT2R,,Yes,,,
ADSL,486,STRAT2RN,text,40,Strat Factor 2 Value Used for Rand,,,,ADSLCOM.STRAT2RN,,ADSLCMP.STRAT2RN,,Yes,,,
ADSL,487,STRAT3D,text,40,Description of Stratification Factor 3,,,,ADSLCOM.STRAT3D,,ADSLCMP.STRAT3D,,Yes,,,
ADSL,488,STRAT3R,text,40,Strat Factor 3 Value Used for Rand,,,,ADSLCOM.STRAT3R,,ADSLCMP.STRAT3R,,Yes,,,
ADSL,489,STRAT3RN,text,40,Strat Factor 3 Value Used for Rand,,,,ADSLCOM.STRAT3RN,,ADSLCMP.STRAT3RN,,Yes,,,
,,,,,,,,,,,,,,,,
,,,,,,,,,,,,,,,,
,,,,,,,,,,,,,,,,
,,,,,,,,,,,,,,,,
,,,,,,,,,,,,,,,,
,,,,,,,,,,,,,,,,
,,,,,,,,,,,,,,,,
,,,,,,,,,,,,,,,,
,,,,,,,,,,,,,,,,
,,,,,,,,,,,,,,,,
,,,,,,,,,,,,,,,,
,,,,,,,,,,,,,,,,
,,,,,,,,,,,,,,,,
,,,,,,,,,,,,,,,,
,,,,,,,,,,,,,,,,
,,,,,,,,,,,,,,,,
,,,,,,,,,,,,,,,,
,,,,,,,,,,,,,,,,
,,,,,,,,,,,,,,,,
,,,,,,,,,,,,,,,,
,,,,,,,,,,,,,,,,
,,,,,,,,,,,,,,,,
,,,,,,,,,,,,,,,,
,,,,,,,,,,,,,,,,
,,,,,,,,,,,,,,,,
,,,,,,,,,,,,,,,,
,,,,,,,,,,,,,,,,
,,,,,,,,,,,,,,,,
,,,,,,,,,,,,,,,,
,,,,,,,,,,,,,,,,
,,,,,,,,,,,,,,,,
,,,,,,,,,,,,,,,,
,,,,,,,,,,,,,,,,
,,,,,,,,,,,,,,,,
,,,,,,,,,,,,,,,,
,,,,,,,,,,,,,,,,
,,,,,,,,,,,,,,,,
,,,,,,,,,,,,,,,,
,,,,,,,,,,,,,,,,
,,,,,,,,,,,,,,,,
,,,,,,,,,,,,,,,,
,,,,,,,,,,,,,,,,
,,,,,,,,,,,,,,,,
,,,,,,,,,,,,,,,,
,,,,,,,,,,,,,,,,
ADRS,1,STUDYID,text,9,Study Identifier,,,DM.STUDYID,,,,,Yes,,,
ADRS,2,USUBJID,text,18,Unique Subject Identifier,1,,DM.USUBJID,,,,,Yes,,,
ADRS,3,SUBJID,text,7,Subject Identifier for the Study,,,DM.SUBJID,,,,,Yes,,,
ADRS,4,SITEID,text,7,Study Site Identifier,,,DM.SITEID,,,,,Yes,,,
ADRS,5,ASEQ,integer,8,Analysis Sequence Number,,,,,,,,Yes,,,
ADRS,6,TRTP,text,20,Planned Treatment,,,,,,,,Yes,,,
ADRS,7,TRTPN,integer,8,Planned Treatment (N),,,,,,,,Yes,,,
ADRS,8,TRTA,text,20,Actual Treatment,,,,,,,,Yes,,,
ADRS,9,TRTAN,integer,8,Actual Treatment (N),,,,,,,,Yes,,,
ADRS,10,TRTPG1,text,20,Planned Pooled Treatment 1,,,,,,,,No,,,
ADRS,11,TRTPG1N,integer,8,Planned Pooled Treatment 1 (N),,,,,,,,No,,,
ADRS,12,TRTAG1,text,20,Actual Pooled Treatment 1,,,,,,,,No,,,
ADRS,13,TRTAG1N,integer,8,Actual Pooled Treatment 1 (N),,,,,,,,No,,,
ADRS,14,DOSEP,integer,8,Planned Treatment Dose,,,,,,,,Yes,,,
ADRS,15,DOSCUMP,integer,8,Cumulative Planned Treatment Dose,,,,,,,,No,,,
ADRS,16,DOSEA,integer,8,Actual Treatment Dose,,,,,,,,Yes,,,
ADRS,17,DOSCUMA,integer,8,Cumulative Actual Treatment Dose,,,,,,,,No,,,
ADRS,18,DOSEUP,text,40,Planned Treatment Dose Units,,,,,,,,Yes,,,
ADRS,19,DOSEUA,text,40,Actual Treatment Dose Units,,,,,,,,Yes,,,
ADRS,20,ADT,integer,8,Analysis Date,,,,,,,,No,,,
ADRS,21,ATM,integer,8,Analysis Time,,,,,,,,No,,,
ADRS,22,ADTM,integer,8,Analysis Datetime,,,,,,,,No,,,
ADRS,23,ADY,integer,8,Analysis Relative Day,,,,,,,,No,,,
ADRS,24,ADTF,text,1,Analysis Date Imputation Flag,,,,,,,DATEFL,No,,,
ADRS,25,ATMF,text,1,Analysis Time Imputation Flag,,,,,,,TIMEFL,No,,,
ADRS,26,ASTDT,integer,8,Analysis Start Date,,,,,,,,No,,,
ADRS,27,ASTTM,integer,8,Analysis Start Time,,,,,,,,No,,,
ADRS,28,ASTDTM,integer,8,Analysis Start Datetime,,,,,,,,No,,,
ADRS,29,ASTDY,integer,8,Analysis Start Relative Day,,,,,,,,Yes,,,
ADRS,30,ASTDTF,text,1,Analysis Start Date Imputation Flag,,,,,,,DATEFL,No,,,
ADRS,31,ASTTMF,text,1,Analysis Start Time Imputation Flag,,,,,,,TIMEFL,No,,,
ADRS,32,AENDT,integer,8,Analysis End Date,,,,,,,,No,,,
ADRS,33,AENTM,integer,8,Analysis End Time,,,,,,,,No,,,
ADRS,34,AENDTM,integer,8,Analysis End Datetime,,,,,,,,No,,,
ADRS,35,AENDY,integer,8,Analysis End Relative Day,,,,,,,,Yes,,,
ADRS,36,AENDTF,text,1,Analysis End Date Imputation Flag,,,,,,,,No,,,
ADRS,37,AENTMF,text,1,Analysis End Time Imputation Flag,,,,,,,,No,,,
ADRS,38,AVISIT,text,40,Analysis Visit,,,,,,,,Yes,,,
ADRS,39,AVISITN,float,8,Analysis Visit (N),,3,,,,,,Yes,,,
ADRS,40,ATPT,text,40,Analysis Timepoint,,,,,,,,No,,,
ADRS,41,ATPTN,float,8,Analysis Timepoint (N),,3,,,,,,No,,,
ADRS,42,ATPTREF,text,40,Analysis Timepoint Reference,,,,,,,,No,,,
ADRS,43,APHASE,text,40,Phase,,,,,,,,Yes,,,
ADRS,44,APHASEN,integer,8,Phase (N),,,,,,,,No,,,
ADRS,45,APERIOD,float,8,Period,,2,,,,,,No,,,
ADRS,46,APERIODC,text,40,Period ©,,,,,,,,No,,,
ADRS,47,ASPER,integer,8,Subperiod within Period,,,,,,,,No,,,
ADRS,48,ASPERC,text,40,Subperiod within Period (C),,,,,,,,No,,,
ADRS,49,ARELTM,integer,8,Analysis Relative Time,,,,,,,,No,,,
ADRS,50,ARELTMU,text,40,Analysis Relative Time Unit,,,,,,,,No,,,
ADRS,51,APERSDT,integer,8,Period Start Date,,,,,,,,No,,,
ADRS,52,APERSTM,integer,8,Period Start Time,,,,,,,,No,,,
ADRS,53,APERSDTM,integer,8,Period Start Datetime,,,,,,,,No,,,
ADRS,54,APERSDTF,text,1,Period Start Date Imput. Flag,,,,,,,,No,,,
ADRS,55,APERSTMF,text,1,Period Start Time Imput. Flag,,,,,,,,No,,,
ADRS,56,APEREDT,integer,8,Period End Date,,,,,,,,No,,,
ADRS,57,APERETM,integer,8,Period End Time,,,,,,,,No,,,
ADRS,58,APEREDTM,integer,8,Period End Datetime,,,,,,,,No,,,
ADRS,59,APEREDTF,text,1,Period End Date Imput. Flag,,,,,,,DATEFL,No,,,
ADRS,60,APERETMF,text,1,Period End Time Imput. Flag,,,,,,,TIMEFL,No,,,
ADRS,61,ASPRSDT,integer,8,Subperiod Start Date,,,,,,,,No,,,
ADRS,62,ASPRSTM,integer,8,Subperiod Start Time,,,,,,,,No,,,
ADRS,63,ASPRSDTM,integer,8,Subperiod Start Datetime,,,,,,,,No,,,
ADRS,64,ASPRSDTF,text,1,Subperiod Start Date Imput. Flag,,,,,,,DATEFL,No,,,
ADRS,65,ASPRSTMF,text,1,Subperiod Start Time Imput. Flag,,,,,,,TIMEFL,No,,,
ADRS,66,ASPREDT,integer,8,Subperiod End Date,,,,,,,,No,,,
ADRS,67,ASPRETM,integer,8,Subperiod End Time,,,,,,,,No,,,
ADRS,68,ASPREDTM,integer,8,Subperiod End Datetime,,,,,,,,No,,,
ADRS,69,ASPREDTF,text,1,Subperiod End Date Imput. Flag,,,,,,,DATEFL,No,,,
ADRS,70,ASPRETMF,text,1,Subperiod End Time Imput. Flag,,,,,,,TIMEFL,No,,,
ADRS,71,PHSDT,integer,8,Phase Start Date,,,,,,,,No,,,
ADRS,72,PHSTM,integer,8,Phase Start Time,,,,,,,,No,,,
ADRS,73,PHSDTM,integer,8,Phase Start Datetime,,,,,,,,No,,,
ADRS,74,PHSDTF,text,1,Phase Start Date Imput. Flag,,,,,,,DATEFL,No,,,
ADRS,75,PHSTMF,text,1,Phase Start Time Imput. Flag,,,,,,,TIMEFL,No,,,
ADRS,76,PHEDT,integer,8,Phase End Date,,,,,,,,No,,,
ADRS,77,PHETM,integer,8,Phase End Time,,,,,,,,No,,,
ADRS,78,PHEDTM,integer,8,Phase End Datetime,,,,,,,,No,,,
ADRS,79,PHEDTF,text,1,Phase End Date Imput. Flag,,,,,,,DATEFL,No,,,
ADRS,80,PHETMF,text,1,Phase End Time Imput. Flag,,,,,,,TIMEFL,No,,,
ADRS,81,PARAM,text,100,Parameter,,,,,,,,Yes,,,
ADRS,82,PARAMCD,text,40,Parameter Code,4,,,,,,,Yes,,,
ADRS,83,PARAMN,integer,8,Parameter (N),,,,,,,,Yes,,,
ADRS,84,PARAMTYP,text,40,Parameter Type,,,,,,,PARAMTYP,Yes,,,
ADRS,85,PARCAT1,text,40,Parameter Category 1,2,,,,,,,No,,,
ADRS,86,PARCAT1N,integer,8,Parameter Category 1 (N),,,,,,,,No,,,
ADRS,87,PARCAT2,text,40,Parameter Category 2,3,,,,,,,No,,,
ADRS,88,PARCAT2N,integer,8,Parameter Category 2 (N),,,,,,,,No,,,
ADRS,89,AVAL,integer,8,Analysis Value,,,,,,,,Yes,,,
ADRS,90,AVALC,text,40,Analysis Value ©,,,,,,,,Yes,,,
ADRS,91,AVALCAT1,text,40,Analysis Value Category 1,,,,,,,,No,,,
ADRS,92,AVALCA1N,integer,8,Analysis Value Category 1 (N),,,,,,,,No,,,
ADRS,93,BASE,integer,8,Baseline Value,,,,,,,,Yes,,,
ADRS,94,BASEC,text,40,Baseline Value (C),,,,,,,,Yes,,,
ADRS,95,BASECAT1,text,40,Baseline Category 1,,,,,,,,No,,,
ADRS,96,BASECA1N,integer,8,Baseline Category 1 (N),,,,,,,,No,,,
ADRS,97,BASETYPE,text,40,Baseline Type,,,,,,,,No,,,
ADRS,98,CHG,float,8,Change from Baseline,,,,,,,,Yes,,,
ADRS,99,CHGCAT1,text,40,Change from Baseline Category 1,,,,,,,,No,,,
ADRS,100,CHGCAT1N,integer,8,Change from Baseline Category 1 (N),,,,,,,,No,,,
ADRS,101,PCHG,float,8,Percent Change from Baseline,,2,,,,,,Yes,,,
ADRS,102,PCHGCAT1,text,40,Percent Chg from Baseline Category 1,,,,,,,,No,,,
ADRS,103,PCHGCA1N,float,8,Percent Chg from Baseline Category 1 (N),,2,,,,,,No,,,
ADRS,104,R2BASE,float,8,Ratio to Baseline,,2,,,,,,Yes,,,
ADRS,105,R2A1LO,float,8,Ratio to Analysis Range 1 Lower Limit,,2,,,,,,No,,,
ADRS,106,R2A1HI,float,8,Ratio to Analysis Range 1 Upper Limit,,2,,,,,,No,,,
ADRS,107,SHIFT1,text,40,Shift 1,,,,,,,,No,,,
ADRS,108,SHIFT1N,integer,8,Shift 1 (N),,,,,,,,No,,,
ADRS,109,CRIT1,text,40,Analysis Criterion 1,,,,,,,,Yes,,,
ADRS,110,CRIT1FL,text,1,Criterion 1 Evaluation Result Flag,,,,,,,,Yes,,,
ADRS,111,CRIT1FN,integer,8,Criterion 1 Evaluation Result Flag (N),,,,,,,,Yes,,,
ADRS,112,MCRIT1,text,40,Analysis Multi-Response Criterion 1,,,,,,,,Yes,,,
ADRS,113,MCRIT1ML,text,40,Multi-Response Criterion 1 Evaluation,,,,,,,,Yes,,,
ADRS,114,MCRIT1MN,float,8,Multi-Response Criterion 1 Eval (N),,,,,,,,Yes,,,
ADRS,115,MCRIT1ML,text,40,Multi-Response Criterion y Evaluation,,,,,,,,Yes,,,
ADRS,116,MCRIT1MN,float,8,Multi-Response Criterion y Eval (N),,,,,,,,Yes,,,
ADRS,117,DTYPE,text,40,Derivation Type,,,,,,,DTYPE,Yes,,,
ADRS,118,AWRANGE,text,40,Analysis Window Valid Relative Range,,,,,,,,Yes,,,
ADRS,119,AWTARGET,integer,8,Analysis Window Target,,,,,,,,Yes,,,
ADRS,120,AWTDIFF,integer,8,Analysis Window Diff from Target,,,,,,,,Yes,,,
ADRS,121,AWLO,integer,8,Analysis Window Beginning Timepoint,,,,,,,,Yes,,,
ADRS,122,AWHI,integer,8,Analysis Window Ending Timepoint,,,,,,,,Yes,,,
ADRS,123,AWU,text,40,Analysis Window Unit,,,,,,,,Yes,,,
ADRS,124,STARTDT,integer,8,Time-to-Event Origin Date for Subject,,,,,,,,Yes,,,
ADRS,125,STARTDTM,integer,8,Time-to-Event Origin Datetime,,,,,,,,Yes,,,
ADRS,126,STARTDTF,text,1,Origin Date Imputation Flag,,,,,,,DATEFL,Yes,,,
ADRS,127,STARTDTF,text,1,Origin Time Imputation Flag,,,,,,,TIMEFL,Yes,,,
ADRS,128,CNSR,integer,8,Censor,,,,,,,,Yes,,,
ADRS,129,EVNTDESC,text,40,Event or Censoring Description,,,,,,,,Yes,,,
ADRS,130,CNSDTDSC,text,40,Censor Date Description,,,,,,,,Yes,,,
ADRS,131,ATOXGR,text,40,Analysis Toxicity Grade,,,,,,,,Yes,,,
ADRS,132,BTOXGR,text,40,Baseline Toxicity Grade,,,,,,,,Yes,,,
ADRS,133,ANRIND,text,40,Analysis Reference Range Indicator,,,,,,,,Yes,,,
ADRS,134,BNRIND,text,40,Baseline Reference Range Indicator,,,,,,,,Yes,,,
ADRS,135,ANRLO,float,8,Analysis Normal Range Lower Limit,,,,,,,,Yes,,,
ADRS,136,ANRLOC,text,40,Analysis Normal Range Lower Limit (C),,,,,,,,Yes,,,
ADRS,137,ANRHI,float,8,Analysis Normal Range Upper Limit,,,,,,,,Yes,,,
ADRS,138,ANRHIC,text,40,Analysis Normal Range Upper Limit (C),,,,,,,,Yes,,,
ADRS,139,A1LO,float,8,Analysis Range 1 Lower Limit,,,,,,,,No,,,
ADRS,140,A1LOC,text,40,Analysis Range 1 Lower Limit (C),,,,,,,,No,,,
ADRS,141,A1HI,float,8,Analysis Range 1 Upper Limit,,,,,,,,No,,,
ADRS,142,A1HIC,text,40,Analysis Range 1 Upper Limit ©,,,,,,,,No,,,
ADRS,143,A1IND,text,40,Analysis Range 1 Indicator,,,,,,,,No,,,
ADRS,144,B1IND,text,40,Baseline Analysis Range 1 Indicator,,,,,,,,No,,,
ADRS,145,ABLFL,text,1,Baseline Record Flag,,,,,,,,Yes,,,
ADRS,146,ABLFN,integer,8,Baseline Record Flag (N),,,,,,,,Yes,,,
ADRS,147,ANL01FL,text,1,Analysis Flag 01,,,,,,,,No,,,
ADRS,148,ANL01FN,integer,8,Analysis Flag 01 (N),,,,,,,,No,,,
ADRS,149,ONTRTFL,text,40,On Treatment Record Flag,,,,,,,,No,,,
ADRS,150,ONTRTFN,integer,8,On Treatment Record Flag (N),,,,,,,,No,,,
ADRS,151,LVOTFL,text,1,Last Value On Treatment Record Flag,,,,,,,,Yes,,,
ADRS,152,LVOTFN,integer,8,Last Value On Treatment Record Flag (N),,,,,,,,Yes,,,
ADRS,153,ITTRFL,text,1,Intent-To-Treat Record-Level Flag,,,,,,,,Yes,,,
ADRS,154,SAFRFL,text,1,Safety Analysis Record-Level Flag,,,,,,,,Yes,,,
ADRS,155,FASRFL,text,1,Full Analysis Set Record-Level Flag,,,,,,,,Yes,,,
ADRS,156,PPROTRFL,text,1,Per-Protocol Record-Level Flag,,,,,,,,Yes,,,
ADRS,157,COMPLRFL,text,1,Completers Record-Level Flag,,,,,,,,Yes,,,
ADRS,158,ITTPFL,text,1,Intent-To-Treat Parameter-Level Flag,,,,,,,,Yes,,,
ADRS,159,SAFPFL,text,1,Safety Analysis Parameter-Level Flag,,,,,,,,Yes,,,
ADRS,160,FASPFL,text,1,Full Analysis Set Parameter-Level Flag,,,,,,,,Yes,,,
ADRS,161,PPROTPFL,text,1,Per-Protocol Parameter-Level Flag,,,,,,,,Yes,,,
ADRS,162,COMPLPFL,text,1,Completers Parameter-Level Flag,,,,,,,,Yes,,,
ADRS,163,SRCDOM,text,40,Source Data,,,,,,,,Yes,,,
ADRS,164,SRCVAR,text,40,Source Variable,,,,,,,,Yes,,,
ADRS,165,SRCSEQ,integer,8,Source Sequence Number,,,,,,,,Yes,,,
,,,,,,,,,,,,,,,,
ADPFS,1,STUDYID,text,9,Study Identifier,,,DM.STUDYID,,,,,Yes,,,
ADPFS,2,USUBJID,text,18,Unique Subject Identifier,1,,DM.USUBJID,,,,,Yes,,,
ADPFS,3,SUBJID,text,7,Subject Identifier for the Study,,,DM.SUBJID,,,,,Yes,,,
ADPFS,4,SITEID,text,7,Study Site Identifier,,,DM.SITEID,,,,,Yes,,,
ADPFS,5,ASEQ,integer,8,Analysis Sequence Number,,,,,,,,Yes,,,
ADPFS,6,TRTP,text,20,Planned Treatment,,,,,,,,Yes,,,
ADPFS,7,TRTPN,integer,8,Planned Treatment (N),,,,,,,,Yes,,,
ADPFS,8,TRTA,text,20,Actual Treatment,,,,,,,,Yes,,,
ADPFS,9,TRTAN,integer,8,Actual Treatment (N),,,,,,,,Yes,,,
ADPFS,10,TRTPG1,text,20,Planned Pooled Treatment 1,,,,,,,,No,,,
ADPFS,11,TRTPG1N,integer,8,Planned Pooled Treatment 1 (N),,,,,,,,No,,,
ADPFS,12,TRTAG1,text,20,Actual Pooled Treatment 1,,,,,,,,No,,,
ADPFS,13,TRTAG1N,integer,8,Actual Pooled Treatment 1 (N),,,,,,,,No,,,
ADPFS,14,DOSEP,integer,8,Planned Treatment Dose,,,,,,,,Yes,,,
ADPFS,15,DOSCUMP,integer,8,Cumulative Planned Treatment Dose,,,,,,,,No,,,
ADPFS,16,DOSEA,integer,8,Actual Treatment Dose,,,,,,,,Yes,,,
ADPFS,17,DOSCUMA,integer,8,Cumulative Actual Treatment Dose,,,,,,,,No,,,
ADPFS,18,DOSEUP,text,40,Planned Treatment Dose Units,,,,,,,,Yes,,,
ADPFS,19,DOSEUA,text,40,Actual Treatment Dose Units,,,,,,,,Yes,,,
ADPFS,20,ADT,integer,8,Analysis Date,,,,,,,,No,,,
ADPFS,21,ATM,integer,8,Analysis Time,,,,,,,,No,,,
ADPFS,22,ADTM,integer,8,Analysis Datetime,,,,,,,,No,,,
ADPFS,23,ADY,integer,8,Analysis Relative Day,,,,,,,,No,,,
ADPFS,24,ADTF,text,1,Analysis Date Imputation Flag,,,,,,,DATEFL,No,,,
ADPFS,25,ATMF,text,1,Analysis Time Imputation Flag,,,,,,,TIMEFL,No,,,
ADPFS,26,ASTDT,integer,8,Analysis Start Date,,,,,,,,No,,,
ADPFS,27,ASTTM,integer,8,Analysis Start Time,,,,,,,,No,,,
ADPFS,28,ASTDTM,integer,8,Analysis Start Datetime,,,,,,,,No,,,
ADPFS,29,ASTDY,integer,8,Analysis Start Relative Day,,,,,,,,Yes,,,
ADPFS,30,ASTDTF,text,1,Analysis Start Date Imputation Flag,,,,,,,DATEFL,No,,,
ADPFS,31,ASTTMF,text,1,Analysis Start Time Imputation Flag,,,,,,,TIMEFL,No,,,
ADPFS,32,AENDT,integer,8,Analysis End Date,,,,,,,,No,,,
ADPFS,33,AENTM,integer,8,Analysis End Time,,,,,,,,No,,,
ADPFS,34,AENDTM,integer,8,Analysis End Datetime,,,,,,,,No,,,
ADPFS,35,AENDY,integer,8,Analysis End Relative Day,,,,,,,,Yes,,,
ADPFS,36,AENDTF,text,1,Analysis End Date Imputation Flag,,,,,,,,No,,,
ADPFS,37,AENTMF,text,1,Analysis End Time Imputation Flag,,,,,,,,No,,,
ADPFS,38,AVISIT,text,40,Analysis Visit,,,,,,,,Yes,,,
ADPFS,39,AVISITN,float,8,Analysis Visit (N),,,,,,,,Yes,,,
ADPFS,40,ATPT,text,40,Analysis Timepoint,,,,,,,,No,,,
ADPFS,41,ATPTN,float,8,Analysis Timepoint (N),,,,,,,,No,,,
ADPFS,42,ATPTREF,text,40,Analysis Timepoint Reference,,,,,,,,No,,,
ADPFS,43,APHASE,text,40,Phase,,,,,,,,Yes,,,
ADPFS,44,APHASEN,integer,8,Phase (N),,,,,,,,No,,,
ADPFS,45,APERIOD,float,8,Period,,,,,,,,No,,,
ADPFS,46,APERIODC,text,40,Period ©,,,,,,,,No,,,
ADPFS,47,ASPER,integer,8,Subperiod within Period,,,,,,,,No,,,
ADPFS,48,ASPERC,text,40,Subperiod within Period (C),,,,,,,,No,,,
ADPFS,49,ARELTM,integer,8,Analysis Relative Time,,,,,,,,No,,,
ADPFS,50,ARELTMU,text,40,Analysis Relative Time Unit,,,,,,,,No,,,
ADPFS,51,APERSDT,integer,8,Period Start Date,,,,,,,,No,,,
ADPFS,52,APERSTM,integer,8,Period Start Time,,,,,,,,No,,,
ADPFS,53,APERSDTM,integer,8,Period Start Datetime,,,,,,,,No,,,
ADPFS,54,APERSDTF,text,1,Period Start Date Imput. Flag,,,,,,,,No,,,
ADPFS,55,APERSTMF,text,1,Period Start Time Imput. Flag,,,,,,,,No,,,
ADPFS,56,APEREDT,integer,8,Period End Date,,,,,,,,No,,,
ADPFS,57,APERETM,integer,8,Period End Time,,,,,,,,No,,,
ADPFS,58,APEREDTM,integer,8,Period End Datetime,,,,,,,,No,,,
ADPFS,59,APEREDTF,text,1,Period End Date Imput. Flag,,,,,,,DATEFL,No,,,
ADPFS,60,APERETMF,text,1,Period End Time Imput. Flag,,,,,,,TIMEFL,No,,,
ADPFS,61,ASPRSDT,integer,8,Subperiod Start Date,,,,,,,,No,,,
ADPFS,62,ASPRSTM,integer,8,Subperiod Start Time,,,,,,,,No,,,
ADPFS,63,ASPRSDTM,integer,8,Subperiod Start Datetime,,,,,,,,No,,,
ADPFS,64,ASPRSDTF,text,1,Subperiod Start Date Imput. Flag,,,,,,,DATEFL,No,,,
ADPFS,65,ASPRSTMF,text,1,Subperiod Start Time Imput. Flag,,,,,,,TIMEFL,No,,,
ADPFS,66,ASPREDT,integer,8,Subperiod End Date,,,,,,,,No,,,
ADPFS,67,ASPRETM,integer,8,Subperiod End Time,,,,,,,,No,,,
ADPFS,68,ASPREDTM,integer,8,Subperiod End Datetime,,,,,,,,No,,,
ADPFS,69,ASPREDTF,text,1,Subperiod End Date Imput. Flag,,,,,,,DATEFL,No,,,
ADPFS,70,ASPRETMF,text,1,Subperiod End Time Imput. Flag,,,,,,,TIMEFL,No,,,
ADPFS,71,PHSDT,integer,8,Phase Start Date,,,,,,,,No,,,
ADPFS,72,PHSTM,integer,8,Phase Start Time,,,,,,,,No,,,
ADPFS,73,PHSDTM,integer,8,Phase Start Datetime,,,,,,,,No,,,
ADPFS,74,PHSDTF,text,1,Phase Start Date Imput. Flag,,,,,,,DATEFL,No,,,
ADPFS,75,PHSTMF,text,1,Phase Start Time Imput. Flag,,,,,,,TIMEFL,No,,,
ADPFS,76,PHEDT,integer,8,Phase End Date,,,,,,,,No,,,
ADPFS,77,PHETM,integer,8,Phase End Time,,,,,,,,No,,,
ADPFS,78,PHEDTM,integer,8,Phase End Datetime,,,,,,,,No,,,
ADPFS,79,PHEDTF,text,1,Phase End Date Imput. Flag,,,,,,,DATEFL,No,,,
ADPFS,80,PHETMF,text,1,Phase End Time Imput. Flag,,,,,,,TIMEFL,No,,,
ADPFS,81,PARAM,text,100,Parameter,,,,,,,,Yes,,,
ADPFS,82,PARAMCD,text,40,Parameter Code,4,,,,,,,Yes,,,
ADPFS,83,PARAMN,integer,8,Parameter (N),,,,,,,,Yes,,,
ADPFS,84,PARAMTYP,text,40,Parameter Type,,,,,,,PARAMTYP,Yes,,,
ADPFS,85,PARCAT1,text,40,Parameter Category 1,2,,,,,,,No,,,
ADPFS,86,PARCAT1N,integer,8,Parameter Category 1 (N),,,,,,,,No,,,
ADPFS,87,PARCAT2,text,40,Parameter Category 2,3,,,,,,,No,,,
ADPFS,88,PARCAT2N,integer,8,Parameter Category 2 (N),,,,,,,,No,,,
ADPFS,89,AVAL,integer,8,Analysis Value,,,,,,,,Yes,,,
ADPFS,90,AVALC,text,40,Analysis Value ©,,,,,,,,Yes,,,
ADPFS,91,AVALCAT1,text,40,Analysis Value Category 1,,,,,,,,No,,,
ADPFS,92,AVALCA1N,integer,8,Analysis Value Category 1 (N),,,,,,,,No,,,
ADPFS,93,BASE,integer,8,Baseline Value,,,,,,,,Yes,,,
ADPFS,94,BASEC,text,40,Baseline Value (C),,,,,,,,Yes,,,
ADPFS,95,BASECAT1,text,40,Baseline Category 1,,,,,,,,No,,,
ADPFS,96,BASECA1N,integer,8,Baseline Category 1 (N),,,,,,,,No,,,
ADPFS,97,BASETYPE,text,40,Baseline Type,,,,,,,,No,,,
ADPFS,98,CHG,float,8,Change from Baseline,,,,,,,,Yes,,,
ADPFS,99,CHGCAT1,text,40,Change from Baseline Category 1,,,,,,,,No,,,
ADPFS,100,CHGCAT1N,integer,8,Change from Baseline Category 1 (N),,,,,,,,No,,,
ADPFS,101,PCHG,float,8,Percent Change from Baseline,,,,,,,,Yes,,,
ADPFS,102,PCHGCAT1,text,40,Percent Chg from Baseline Category 1,,,,,,,,No,,,
ADPFS,103,PCHGCA1N,float,8,Percent Chg from Baseline Category 1 (N),,,,,,,,No,,,
ADPFS,104,R2BASE,float,8,Ratio to Baseline,,,,,,,,Yes,,,
ADPFS,105,R2A1LO,float,8,Ratio to Analysis Range 1 Lower Limit,,,,,,,,No,,,
ADPFS,106,R2A1HI,float,8,Ratio to Analysis Range 1 Upper Limit,,,,,,,,No,,,
ADPFS,107,SHIFT1,text,40,Shift 1,,,,,,,,No,,,
ADPFS,108,SHIFT1N,integer,8,Shift 1 (N),,,,,,,,No,,,
ADPFS,109,CRIT1,text,40,Analysis Criterion 1,,,,,,,,Yes,,,
ADPFS,110,CRIT1FL,text,1,Criterion 1 Evaluation Result Flag,,,,,,,,Yes,,,
ADPFS,111,CRIT1FN,integer,8,Criterion 1 Evaluation Result Flag (N),,,,,,,,Yes,,,
ADPFS,112,MCRIT1,text,40,Analysis Multi-Response Criterion 1,,,,,,,,Yes,,,
ADPFS,113,MCRIT1ML,text,40,Multi-Response Criterion 1 Evaluation,,,,,,,,Yes,,,
ADPFS,114,MCRIT1MN,float,8,Multi-Response Criterion 1 Eval (N),,,,,,,,Yes,,,
ADPFS,115,MCRIT1ML,text,40,Multi-Response Criterion y Evaluation,,,,,,,,Yes,,,
ADPFS,116,MCRIT1MN,float,8,Multi-Response Criterion y Eval (N),,,,,,,,Yes,,,
ADPFS,117,DTYPE,text,40,Derivation Type,,,,,,,DTYPE,Yes,,,
ADPFS,118,AWRANGE,text,40,Analysis Window Valid Relative Range,,,,,,,,Yes,,,
ADPFS,119,AWTARGET,integer,8,Analysis Window Target,,,,,,,,Yes,,,
ADPFS,120,AWTDIFF,integer,8,Analysis Window Diff from Target,,,,,,,,Yes,,,
ADPFS,121,AWLO,integer,8,Analysis Window Beginning Timepoint,,,,,,,,Yes,,,
ADPFS,122,AWHI,integer,8,Analysis Window Ending Timepoint,,,,,,,,Yes,,,
ADPFS,123,AWU,text,40,Analysis Window Unit,,,,,,,,Yes,,,
ADPFS,124,STARTDT,integer,8,Time-to-Event Origin Date for Subject,,,,,,,,Yes,,,
ADPFS,125,STARTDTM,integer,8,Time-to-Event Origin Datetime,,,,,,,,Yes,,,
ADPFS,126,STARTDTF,text,1,Origin Date Imputation Flag,,,,,,,DATEFL,Yes,,,
ADPFS,127,STARTDTF,text,1,Origin Time Imputation Flag,,,,,,,TIMEFL,Yes,,,
ADPFS,128,CNSR,integer,8,Censor,,,,,,,,Yes,,,
ADPFS,129,EVNTDESC,text,40,Event or Censoring Description,,,,,,,,Yes,,,
ADPFS,130,CNSDTDSC,text,40,Censor Date Description,,,,,,,,Yes,,,
ADPFS,131,ATOXGR,text,40,Analysis Toxicity Grade,,,,,,,,Yes,,,
ADPFS,132,BTOXGR,text,40,Baseline Toxicity Grade,,,,,,,,Yes,,,
ADPFS,133,ANRIND,text,40,Analysis Reference Range Indicator,,,,,,,,Yes,,,
ADPFS,134,BNRIND,text,40,Baseline Reference Range Indicator,,,,,,,,Yes,,,
ADPFS,135,ANRLO,float,8,Analysis Normal Range Lower Limit,,,,,,,,Yes,,,
ADPFS,136,ANRLOC,text,40,Analysis Normal Range Lower Limit (C),,,,,,,,Yes,,,
ADPFS,137,ANRHI,float,8,Analysis Normal Range Upper Limit,,,,,,,,Yes,,,
ADPFS,138,ANRHIC,text,40,Analysis Normal Range Upper Limit (C),,,,,,,,Yes,,,
ADPFS,139,A1LO,float,8,Analysis Range 1 Lower Limit,,,,,,,,No,,,
ADPFS,140,A1LOC,text,40,Analysis Range 1 Lower Limit (C),,,,,,,,No,,,
ADPFS,141,A1HI,float,8,Analysis Range 1 Upper Limit,,,,,,,,No,,,
ADPFS,142,A1HIC,text,40,Analysis Range 1 Upper Limit ©,,,,,,,,No,,,
ADPFS,143,A1IND,text,40,Analysis Range 1 Indicator,,,,,,,,No,,,
ADPFS,144,B1IND,text,40,Baseline Analysis Range 1 Indicator,,,,,,,,No,,,
ADPFS,145,ABLFL,text,1,Baseline Record Flag,,,,,,,,Yes,,,
ADPFS,146,ABLFN,integer,8,Baseline Record Flag (N),,,,,,,,Yes,,,
ADPFS,147,ANL01FL,text,1,Analysis Flag 01,,,,,,,,No,,,
ADPFS,148,ANL01FN,integer,8,Analysis Flag 01 (N),,,,,,,,No,,,
ADPFS,149,ONTRTFL,text,40,On Treatment Record Flag,,,,,,,,No,,,
ADPFS,150,ONTRTFN,integer,8,On Treatment Record Flag (N),,,,,,,,No,,,
ADPFS,151,LVOTFL,text,1,Last Value On Treatment Record Flag,,,,,,,,Yes,,,
ADPFS,152,LVOTFN,integer,8,Last Value On Treatment Record Flag (N),,,,,,,,Yes,,,
ADPFS,153,ITTRFL,text,1,Intent-To-Treat Record-Level Flag,,,,,,,,Yes,,,
ADPFS,154,SAFRFL,text,1,Safety Analysis Record-Level Flag,,,,,,,,Yes,,,
ADPFS,155,FASRFL,text,1,Full Analysis Set Record-Level Flag,,,,,,,,Yes,,,
ADPFS,156,PPROTRFL,text,1,Per-Protocol Record-Level Flag,,,,,,,,Yes,,,
ADPFS,157,COMPLRFL,text,1,Completers Record-Level Flag,,,,,,,,Yes,,,
ADPFS,158,ITTPFL,text,1,Intent-To-Treat Parameter-Level Flag,,,,,,,,Yes,,,
ADPFS,159,SAFPFL,text,1,Safety Analysis Parameter-Level Flag,,,,,,,,Yes,,,
ADPFS,160,FASPFL,text,1,Full Analysis Set Parameter-Level Flag,,,,,,,,Yes,,,
ADPFS,161,PPROTPFL,text,1,Per-Protocol Parameter-Level Flag,,,,,,,,Yes,,,
ADPFS,162,COMPLPFL,text,1,Completers Parameter-Level Flag,,,,,,,,Yes,,,
ADPFS,163,SRCDOM,text,40,Source Data,,,,,,,,Yes,,,
ADPFS,164,SRCVAR,text,40,Source Variable,,,,,,,,Yes,,,
ADPFS,165,SRCSEQ,integer,8,Source Sequence Number,,,,,,,,Yes,,,
,,,,,,,,,,,,,,,,
ADOS,1,STUDYID,text,9,Study Identifier,,,DM.STUDYID,,,,,Yes,,,
ADOS,2,USUBJID,text,18,Unique Subject Identifier,1,,DM.USUBJID,,,,,Yes,,,
ADOS,3,SUBJID,text,7,Subject Identifier for the Study,,,DM.SUBJID,,,,,Yes,,,
ADOS,4,SITEID,text,7,Study Site Identifier,,,DM.SITEID,,,,,Yes,,,
ADOS,5,ASEQ,integer,8,Analysis Sequence Number,,,,,,,,Yes,,,
ADOS,6,TRTP,text,20,Planned Treatment,,,,,,,,Yes,,,
ADOS,7,TRTPN,integer,8,Planned Treatment (N),,,,,,,,Yes,,,
ADOS,8,TRTA,text,20,Actual Treatment,,,,,,,,Yes,,,
ADOS,9,TRTAN,integer,8,Actual Treatment (N),,,,,,,,Yes,,,
ADOS,10,TRTPG1,text,20,Planned Pooled Treatment 1,,,,,,,,No,,,
ADOS,11,TRTPG1N,integer,8,Planned Pooled Treatment 1 (N),,,,,,,,No,,,
ADOS,12,TRTAG1,text,20,Actual Pooled Treatment 1,,,,,,,,No,,,
ADOS,13,TRTAG1N,integer,8,Actual Pooled Treatment 1 (N),,,,,,,,No,,,
ADOS,14,DOSEP,integer,8,Planned Treatment Dose,,,,,,,,Yes,,,
ADOS,15,DOSCUMP,integer,8,Cumulative Planned Treatment Dose,,,,,,,,No,,,
ADOS,16,DOSEA,integer,8,Actual Treatment Dose,,,,,,,,Yes,,,
ADOS,17,DOSCUMA,integer,8,Cumulative Actual Treatment Dose,,,,,,,,No,,,
ADOS,18,DOSEUP,text,40,Planned Treatment Dose Units,,,,,,,,Yes,,,
ADOS,19,DOSEUA,text,40,Actual Treatment Dose Units,,,,,,,,Yes,,,
ADOS,20,ADT,integer,8,Analysis Date,,,,,,,,No,,,
ADOS,21,ATM,integer,8,Analysis Time,,,,,,,,No,,,
ADOS,22,ADTM,integer,8,Analysis Datetime,,,,,,,,No,,,
ADOS,23,ADY,integer,8,Analysis Relative Day,,,,,,,,No,,,
ADOS,24,ADTF,text,1,Analysis Date Imputation Flag,,,,,,,DATEFL,No,,,
ADOS,25,ATMF,text,1,Analysis Time Imputation Flag,,,,,,,TIMEFL,No,,,
ADOS,26,ASTDT,integer,8,Analysis Start Date,,,,,,,,No,,,
ADOS,27,ASTTM,integer,8,Analysis Start Time,,,,,,,,No,,,
ADOS,28,ASTDTM,integer,8,Analysis Start Datetime,,,,,,,,No,,,
ADOS,29,ASTDY,integer,8,Analysis Start Relative Day,,,,,,,,Yes,,,
ADOS,30,ASTDTF,text,1,Analysis Start Date Imputation Flag,,,,,,,DATEFL,No,,,
ADOS,31,ASTTMF,text,1,Analysis Start Time Imputation Flag,,,,,,,TIMEFL,No,,,
ADOS,32,AENDT,integer,8,Analysis End Date,,,,,,,,No,,,
ADOS,33,AENTM,integer,8,Analysis End Time,,,,,,,,No,,,
ADOS,34,AENDTM,integer,8,Analysis End Datetime,,,,,,,,No,,,
ADOS,35,AENDY,integer,8,Analysis End Relative Day,,,,,,,,Yes,,,
ADOS,36,AENDTF,text,1,Analysis End Date Imputation Flag,,,,,,,,No,,,
ADOS,37,AENTMF,text,1,Analysis End Time Imputation Flag,,,,,,,,No,,,
ADOS,38,AVISIT,text,40,Analysis Visit,,,,,,,,Yes,,,
ADOS,39,AVISITN,float,8,Analysis Visit (N),,,,,,,,Yes,,,
ADOS,40,ATPT,text,40,Analysis Timepoint,,,,,,,,No,,,
ADOS,41,ATPTN,float,8,Analysis Timepoint (N),,,,,,,,No,,,
ADOS,42,ATPTREF,text,40,Analysis Timepoint Reference,,,,,,,,No,,,
ADOS,43,APHASE,text,40,Phase,,,,,,,,Yes,,,
ADOS,44,APHASEN,integer,8,Phase (N),,,,,,,,No,,,
ADOS,45,APERIOD,float,8,Period,,,,,,,,No,,,
ADOS,46,APERIODC,text,40,Period ©,,,,,,,,No,,,
ADOS,47,ASPER,integer,8,Subperiod within Period,,,,,,,,No,,,
ADOS,48,ASPERC,text,40,Subperiod within Period (C),,,,,,,,No,,,
ADOS,49,ARELTM,integer,8,Analysis Relative Time,,,,,,,,No,,,
ADOS,50,ARELTMU,text,40,Analysis Relative Time Unit,,,,,,,,No,,,
ADOS,51,APERSDT,integer,8,Period Start Date,,,,,,,,No,,,
ADOS,52,APERSTM,integer,8,Period Start Time,,,,,,,,No,,,
ADOS,53,APERSDTM,integer,8,Period Start Datetime,,,,,,,,No,,,
ADOS,54,APERSDTF,text,1,Period Start Date Imput. Flag,,,,,,,,No,,,
ADOS,55,APERSTMF,text,1,Period Start Time Imput. Flag,,,,,,,,No,,,
ADOS,56,APEREDT,integer,8,Period End Date,,,,,,,,No,,,
ADOS,57,APERETM,integer,8,Period End Time,,,,,,,,No,,,
ADOS,58,APEREDTM,integer,8,Period End Datetime,,,,,,,,No,,,
ADOS,59,APEREDTF,text,1,Period End Date Imput. Flag,,,,,,,DATEFL,No,,,
ADOS,60,APERETMF,text,1,Period End Time Imput. Flag,,,,,,,TIMEFL,No,,,
ADOS,61,ASPRSDT,integer,8,Subperiod Start Date,,,,,,,,No,,,
ADOS,62,ASPRSTM,integer,8,Subperiod Start Time,,,,,,,,No,,,
ADOS,63,ASPRSDTM,integer,8,Subperiod Start Datetime,,,,,,,,No,,,
ADOS,64,ASPRSDTF,text,1,Subperiod Start Date Imput. Flag,,,,,,,DATEFL,No,,,
ADOS,65,ASPRSTMF,text,1,Subperiod Start Time Imput. Flag,,,,,,,TIMEFL,No,,,
ADOS,66,ASPREDT,integer,8,Subperiod End Date,,,,,,,,No,,,
ADOS,67,ASPRETM,integer,8,Subperiod End Time,,,,,,,,No,,,
ADOS,68,ASPREDTM,integer,8,Subperiod End Datetime,,,,,,,,No,,,
ADOS,69,ASPREDTF,text,1,Subperiod End Date Imput. Flag,,,,,,,DATEFL,No,,,
ADOS,70,ASPRETMF,text,1,Subperiod End Time Imput. Flag,,,,,,,TIMEFL,No,,,
ADOS,71,PHSDT,integer,8,Phase Start Date,,,,,,,,No,,,
ADOS,72,PHSTM,integer,8,Phase Start Time,,,,,,,,No,,,
ADOS,73,PHSDTM,integer,8,Phase Start Datetime,,,,,,,,No,,,
ADOS,74,PHSDTF,text,1,Phase Start Date Imput. Flag,,,,,,,DATEFL,No,,,
ADOS,75,PHSTMF,text,1,Phase Start Time Imput. Flag,,,,,,,TIMEFL,No,,,
ADOS,76,PHEDT,integer,8,Phase End Date,,,,,,,,No,,,
ADOS,77,PHETM,integer,8,Phase End Time,,,,,,,,No,,,
ADOS,78,PHEDTM,integer,8,Phase End Datetime,,,,,,,,No,,,
ADOS,79,PHEDTF,text,1,Phase End Date Imput. Flag,,,,,,,DATEFL,No,,,
ADOS,80,PHETMF,text,1,Phase End Time Imput. Flag,,,,,,,TIMEFL,No,,,
ADOS,81,PARAM,text,100,Parameter,,,,,,,,Yes,,,
ADOS,82,PARAMCD,text,40,Parameter Code,2,,,,,,,Yes,,,
ADOS,83,PARAMN,integer,8,Parameter (N),,,,,,,,Yes,,,
ADOS,84,PARAMTYP,text,40,Parameter Type,,,,,,,PARAMTYP,Yes,,,
ADOS,85,PARCAT1,text,40,Parameter Category 1,,,,,,,,No,,,
ADOS,86,PARCAT1N,integer,8,Parameter Category 1 (N),,,,,,,,No,,,
ADOS,87,AVAL,integer,8,Analysis Value,,,,,,,,Yes,,,
ADOS,88,AVALC,text,40,Analysis Value ©,,,,,,,,Yes,,,
ADOS,89,AVALCAT1,text,40,Analysis Value Category 1,,,,,,,,No,,,
ADOS,90,AVALCA1N,integer,8,Analysis Value Category 1 (N),,,,,,,,No,,,
ADOS,91,BASE,integer,8,Baseline Value,,,,,,,,Yes,,,
ADOS,92,BASEC,text,40,Baseline Value (C),,,,,,,,Yes,,,
ADOS,93,BASECAT1,text,40,Baseline Category 1,,,,,,,,No,,,
ADOS,94,BASECA1N,integer,8,Baseline Category 1 (N),,,,,,,,No,,,
ADOS,95,BASETYPE,text,40,Baseline Type,,,,,,,,No,,,
ADOS,96,CHG,float,8,Change from Baseline,,,,,,,,Yes,,,
ADOS,97,CHGCAT1,text,40,Change from Baseline Category 1,,,,,,,,No,,,
ADOS,98,CHGCAT1N,integer,8,Change from Baseline Category 1 (N),,,,,,,,No,,,
ADOS,99,PCHG,float,8,Percent Change from Baseline,,,,,,,,Yes,,,
ADOS,100,PCHGCAT1,text,40,Percent Chg from Baseline Category 1,,,,,,,,No,,,
ADOS,101,PCHGCA1N,float,8,Percent Chg from Baseline Category 1 (N),,,,,,,,No,,,
ADOS,102,R2BASE,float,8,Ratio to Baseline,,,,,,,,Yes,,,
ADOS,103,R2A1LO,float,8,Ratio to Analysis Range 1 Lower Limit,,,,,,,,No,,,
ADOS,104,R2A1HI,float,8,Ratio to Analysis Range 1 Upper Limit,,,,,,,,No,,,
ADOS,105,SHIFT1,text,40,Shift 1,,,,,,,,No,,,
ADOS,106,SHIFT1N,integer,8,Shift 1 (N),,,,,,,,No,,,
ADOS,107,CRIT1,text,40,Analysis Criterion 1,,,,,,,,Yes,,,
ADOS,108,CRIT1FL,text,1,Criterion 1 Evaluation Result Flag,,,,,,,,Yes,,,
ADOS,109,CRIT1FN,integer,8,Criterion 1 Evaluation Result Flag (N),,,,,,,,Yes,,,
ADOS,110,MCRIT1,text,40,Analysis Multi-Response Criterion 1,,,,,,,,Yes,,,
ADOS,111,MCRIT1ML,text,40,Multi-Response Criterion 1 Evaluation,,,,,,,,Yes,,,
ADOS,112,MCRIT1MN,float,8,Multi-Response Criterion 1 Eval (N),,,,,,,,Yes,,,
ADOS,113,MCRIT1ML,text,40,Multi-Response Criterion y Evaluation,,,,,,,,Yes,,,
ADOS,114,MCRIT1MN,float,8,Multi-Response Criterion y Eval (N),,,,,,,,Yes,,,
ADOS,115,DTYPE,text,40,Derivation Type,,,,,,,DTYPE,Yes,,,
ADOS,116,AWRANGE,text,40,Analysis Window Valid Relative Range,,,,,,,,Yes,,,
ADOS,117,AWTARGET,integer,8,Analysis Window Target,,,,,,,,Yes,,,
ADOS,118,AWTDIFF,integer,8,Analysis Window Diff from Target,,,,,,,,Yes,,,
ADOS,119,AWLO,integer,8,Analysis Window Beginning Timepoint,,,,,,,,Yes,,,
ADOS,120,AWHI,integer,8,Analysis Window Ending Timepoint,,,,,,,,Yes,,,
ADOS,121,AWU,text,40,Analysis Window Unit,,,,,,,,Yes,,,
ADOS,122,STARTDT,integer,8,Time-to-Event Origin Date for Subject,,,,,,,,Yes,,,
ADOS,123,STARTDTM,integer,8,Time-to-Event Origin Datetime,,,,,,,,Yes,,,
ADOS,124,STARTDTF,text,1,Origin Date Imputation Flag,,,,,,,DATEFL,Yes,,,
ADOS,125,STARTDTF,text,1,Origin Time Imputation Flag,,,,,,,TIMEFL,Yes,,,
ADOS,126,CNSR,integer,8,Censor,,,,,,,,Yes,,,
ADOS,127,EVNTDESC,text,40,Event or Censoring Description,,,,,,,,Yes,,,
ADOS,128,CNSDTDSC,text,40,Censor Date Description,,,,,,,,Yes,,,
ADOS,129,ATOXGR,text,40,Analysis Toxicity Grade,,,,,,,,Yes,,,
ADOS,130,BTOXGR,text,40,Baseline Toxicity Grade,,,,,,,,Yes,,,
ADOS,131,ANRIND,text,40,Analysis Reference Range Indicator,,,,,,,,Yes,,,
ADOS,132,BNRIND,text,40,Baseline Reference Range Indicator,,,,,,,,Yes,,,
ADOS,133,ANRLO,float,8,Analysis Normal Range Lower Limit,,,,,,,,Yes,,,
ADOS,134,ANRLOC,text,40,Analysis Normal Range Lower Limit (C),,,,,,,,Yes,,,
ADOS,135,ANRHI,float,8,Analysis Normal Range Upper Limit,,,,,,,,Yes,,,
ADOS,136,ANRHIC,text,40,Analysis Normal Range Upper Limit (C),,,,,,,,Yes,,,
ADOS,137,A1LO,float,8,Analysis Range 1 Lower Limit,,,,,,,,No,,,
ADOS,138,A1LOC,text,40,Analysis Range 1 Lower Limit (C),,,,,,,,No,,,
ADOS,139,A1HI,float,8,Analysis Range 1 Upper Limit,,,,,,,,No,,,
ADOS,140,A1HIC,text,40,Analysis Range 1 Upper Limit ©,,,,,,,,No,,,
ADOS,141,A1IND,text,40,Analysis Range 1 Indicator,,,,,,,,No,,,
ADOS,142,B1IND,text,40,Baseline Analysis Range 1 Indicator,,,,,,,,No,,,
ADOS,143,ABLFL,text,1,Baseline Record Flag,,,,,,,,Yes,,,
ADOS,144,ABLFN,integer,8,Baseline Record Flag (N),,,,,,,,Yes,,,
ADOS,145,ANL01FL,text,1,Analysis Flag 01,,,,,,,,No,,,
ADOS,146,ANL01FN,integer,8,Analysis Flag 01 (N),,,,,,,,No,,,
ADOS,147,ONTRTFL,text,40,On Treatment Record Flag,,,,,,,,No,,,
ADOS,148,ONTRTFN,integer,8,On Treatment Record Flag (N),,,,,,,,No,,,
ADOS,149,LVOTFL,text,1,Last Value On Treatment Record Flag,,,,,,,,Yes,,,
ADOS,150,LVOTFN,integer,8,Last Value On Treatment Record Flag (N),,,,,,,,Yes,,,
ADOS,151,ITTRFL,text,1,Intent-To-Treat Record-Level Flag,,,,,,,,Yes,,,
ADOS,152,SAFRFL,text,1,Safety Analysis Record-Level Flag,,,,,,,,Yes,,,
ADOS,153,FASRFL,text,1,Full Analysis Set Record-Level Flag,,,,,,,,Yes,,,
ADOS,154,PPROTRFL,text,1,Per-Protocol Record-Level Flag,,,,,,,,Yes,,,
ADOS,155,COMPLRFL,text,1,Completers Record-Level Flag,,,,,,,,Yes,,,
ADOS,156,ITTPFL,text,1,Intent-To-Treat Parameter-Level Flag,,,,,,,,Yes,,,
ADOS,157,SAFPFL,text,1,Safety Analysis Parameter-Level Flag,,,,,,,,Yes,,,
ADOS,158,FASPFL,text,1,Full Analysis Set Parameter-Level Flag,,,,,,,,Yes,,,
ADOS,159,PPROTPFL,text,1,Per-Protocol Parameter-Level Flag,,,,,,,,Yes,,,
ADOS,160,COMPLPFL,text,1,Completers Parameter-Level Flag,,,,,,,,Yes,,,
ADOS,161,SRCDOM,text,40,Source Data,,,,,,,,Yes,,,
ADOS,162,SRCVAR,text,40,Source Variable,,,,,,,,Yes,,,
ADOS,163,SRCSEQ,integer,8,Source Sequence Number,,,,,,,,Yes,,,
,,,,,,,,,,,,,,,,
ADLS,1,STUDYID,text,9,Study Identifier,,,DM.STUDYID,,,,,Yes,,,
ADLS,2,USUBJID,text,18,Unique Subject Identifier,1,,DM.USUBJID,,,,,Yes,,,
ADLS,3,SUBJID,text,7,Subject Identifier for the Study,,,DM.SUBJID,,,,,Yes,,,
ADLS,4,SITEID,text,7,Study Site Identifier,,,DM.SITEID,,,,,Yes,,,
ADLS,5,ASEQ,integer,8,Analysis Sequence Number,,,,,,,,Yes,,,
ADLS,6,TRTP,text,20,Planned Treatment,,,,,,,,Yes,,,
ADLS,7,TRTPN,integer,8,Planned Treatment (N),,,,,,,,Yes,,,
ADLS,8,TRTA,text,20,Actual Treatment,,,,,,,,Yes,,,
ADLS,9,TRTAN,integer,8,Actual Treatment (N),,,,,,,,Yes,,,
ADLS,10,TRTPG1,text,20,Planned Pooled Treatment 1,,,,,,,,No,,,
ADLS,11,TRTPG1N,integer,8,Planned Pooled Treatment 1 (N),,,,,,,,No,,,
ADLS,12,TRTAG1,text,20,Actual Pooled Treatment 1,,,,,,,,No,,,
ADLS,13,TRTAG1N,integer,8,Actual Pooled Treatment 1 (N),,,,,,,,No,,,
ADLS,14,DOSEP,integer,8,Planned Treatment Dose,,,,,,,,Yes,,,
ADLS,15,DOSCUMP,integer,8,Cumulative Planned Treatment Dose,,,,,,,,No,,,
ADLS,16,DOSEA,integer,8,Actual Treatment Dose,,,,,,,,Yes,,,
ADLS,17,DOSCUMA,integer,8,Cumulative Actual Treatment Dose,,,,,,,,No,,,
ADLS,18,DOSEUP,text,40,Planned Treatment Dose Units,,,,,,,,Yes,,,
ADLS,19,DOSEUA,text,40,Actual Treatment Dose Units,,,,,,,,Yes,,,
ADLS,20,ADT,integer,8,Analysis Date,,,,,,,,No,,,
ADLS,21,ATM,integer,8,Analysis Time,,,,,,,,No,,,
ADLS,22,ADTM,integer,8,Analysis Datetime,,,,,,,,No,,,
ADLS,23,ADY,integer,8,Analysis Relative Day,,,,,,,,No,,,
ADLS,24,ADTF,text,1,Analysis Date Imputation Flag,,,,,,,DATEFL,No,,,
ADLS,25,ATMF,text,1,Analysis Time Imputation Flag,,,,,,,TIMEFL,No,,,
ADLS,26,ASTDT,integer,8,Analysis Start Date,,,,,,,,No,,,
ADLS,27,ASTTM,integer,8,Analysis Start Time,,,,,,,,No,,,
ADLS,28,ASTDTM,integer,8,Analysis Start Datetime,,,,,,,,No,,,
ADLS,29,ASTDY,integer,8,Analysis Start Relative Day,,,,,,,,Yes,,,
ADLS,30,ASTDTF,text,1,Analysis Start Date Imputation Flag,,,,,,,DATEFL,No,,,
ADLS,31,ASTTMF,text,1,Analysis Start Time Imputation Flag,,,,,,,TIMEFL,No,,,
ADLS,32,AENDT,integer,8,Analysis End Date,,,,,,,,No,,,
ADLS,33,AENTM,integer,8,Analysis End Time,,,,,,,,No,,,
ADLS,34,AENDTM,integer,8,Analysis End Datetime,,,,,,,,No,,,
ADLS,35,AENDY,integer,8,Analysis End Relative Day,,,,,,,,Yes,,,
ADLS,36,AENDTF,text,1,Analysis End Date Imputation Flag,,,,,,,,No,,,
ADLS,37,AENTMF,text,1,Analysis End Time Imputation Flag,,,,,,,,No,,,
ADLS,38,AVISIT,text,40,Analysis Visit,,,,,,,,Yes,,,
ADLS,39,AVISITN,float,8,Analysis Visit (N),,,,,,,,Yes,,,
ADLS,40,ATPT,text,40,Analysis Timepoint,,,,,,,,No,,,
ADLS,41,ATPTN,float,8,Analysis Timepoint (N),,,,,,,,No,,,
ADLS,42,ATPTREF,text,40,Analysis Timepoint Reference,,,,,,,,No,,,
ADLS,43,APHASE,text,40,Phase,,,,,,,,Yes,,,
ADLS,44,APHASEN,integer,8,Phase (N),,,,,,,,No,,,
ADLS,45,APERIOD,float,8,Period,,,,,,,,No,,,
ADLS,46,APERIODC,text,40,Period ©,,,,,,,,No,,,
ADLS,47,ASPER,integer,8,Subperiod within Period,,,,,,,,No,,,
ADLS,48,ASPERC,text,40,Subperiod within Period (C),,,,,,,,No,,,
ADLS,49,ARELTM,integer,8,Analysis Relative Time,,,,,,,,No,,,
ADLS,50,ARELTMU,text,40,Analysis Relative Time Unit,,,,,,,,No,,,
ADLS,51,APERSDT,integer,8,Period Start Date,,,,,,,,No,,,
ADLS,52,APERSTM,integer,8,Period Start Time,,,,,,,,No,,,
ADLS,53,APERSDTM,integer,8,Period Start Datetime,,,,,,,,No,,,
ADLS,54,APERSDTF,text,1,Period Start Date Imput. Flag,,,,,,,,No,,,
ADLS,55,APERSTMF,text,1,Period Start Time Imput. Flag,,,,,,,,No,,,
ADLS,56,APEREDT,integer,8,Period End Date,,,,,,,,No,,,
ADLS,57,APERETM,integer,8,Period End Time,,,,,,,,No,,,
ADLS,58,APEREDTM,integer,8,Period End Datetime,,,,,,,,No,,,
ADLS,59,APEREDTF,text,1,Period End Date Imput. Flag,,,,,,,DATEFL,No,,,
ADLS,60,APERETMF,text,1,Period End Time Imput. Flag,,,,,,,TIMEFL,No,,,
ADLS,61,ASPRSDT,integer,8,Subperiod Start Date,,,,,,,,No,,,
ADLS,62,ASPRSTM,integer,8,Subperiod Start Time,,,,,,,,No,,,
ADLS,63,ASPRSDTM,integer,8,Subperiod Start Datetime,,,,,,,,No,,,
ADLS,64,ASPRSDTF,text,1,Subperiod Start Date Imput. Flag,,,,,,,DATEFL,No,,,
ADLS,65,ASPRSTMF,text,1,Subperiod Start Time Imput. Flag,,,,,,,TIMEFL,No,,,
ADLS,66,ASPREDT,integer,8,Subperiod End Date,,,,,,,,No,,,
ADLS,67,ASPRETM,integer,8,Subperiod End Time,,,,,,,,No,,,
ADLS,68,ASPREDTM,integer,8,Subperiod End Datetime,,,,,,,,No,,,
ADLS,69,ASPREDTF,text,1,Subperiod End Date Imput. Flag,,,,,,,DATEFL,No,,,
ADLS,70,ASPRETMF,text,1,Subperiod End Time Imput. Flag,,,,,,,TIMEFL,No,,,
ADLS,71,PHSDT,integer,8,Phase Start Date,,,,,,,,No,,,
ADLS,72,PHSTM,integer,8,Phase Start Time,,,,,,,,No,,,
ADLS,73,PHSDTM,integer,8,Phase Start Datetime,,,,,,,,No,,,
ADLS,74,PHSDTF,text,1,Phase Start Date Imput. Flag,,,,,,,DATEFL,No,,,
ADLS,75,PHSTMF,text,1,Phase Start Time Imput. Flag,,,,,,,TIMEFL,No,,,
ADLS,76,PHEDT,integer,8,Phase End Date,,,,,,,,No,,,
ADLS,77,PHETM,integer,8,Phase End Time,,,,,,,,No,,,
ADLS,78,PHEDTM,integer,8,Phase End Datetime,,,,,,,,No,,,
ADLS,79,PHEDTF,text,1,Phase End Date Imput. Flag,,,,,,,DATEFL,No,,,
ADLS,80,PHETMF,text,1,Phase End Time Imput. Flag,,,,,,,TIMEFL,No,,,
ADLS,81,PARAM,text,100,Parameter,,,,,,,,Yes,,,
ADLS,82,PARAMCD,text,40,Parameter Code,,,,,,,,Yes,,,
ADLS,83,PARAMN,integer,8,Parameter (N),,,,,,,,Yes,,,
ADLS,84,PARAMTYP,text,40,Parameter Type,,,,,,,PARAMTYP,Yes,,,
ADLS,85,PARCAT1,text,40,Parameter Category 1,,,,,,,,No,,,
ADLS,86,PARCAT1N,integer,8,Parameter Category 1 (N),,,,,,,,No,,,
ADLS,87,PARCAT2,text,40,Parameter Category 2,,,,,,,,No,,,
ADLS,88,PARCAT2N,integer,8,Parameter Category 2 (N),,,,,,,,No,,,
ADLS,89,AVAL,integer,8,Analysis Value,,,,,,,,Yes,,,
ADLS,90,AVALC,text,40,Analysis Value ©,,,,,,,,Yes,,,
ADLS,91,AVALCAT1,text,40,Analysis Value Category 1,,,,,,,,No,,,
ADLS,92,AVALCA1N,integer,8,Analysis Value Category 1 (N),,,,,,,,No,,,
ADLS,93,BASE,integer,8,Baseline Value,,,,,,,,Yes,,,
ADLS,94,BASEC,text,40,Baseline Value (C),,,,,,,,Yes,,,
ADLS,95,BASECAT1,text,40,Baseline Category 1,,,,,,,,No,,,
ADLS,96,BASECA1N,integer,8,Baseline Category 1 (N),,,,,,,,No,,,
ADLS,97,BASETYPE,text,40,Baseline Type,,,,,,,,No,,,
ADLS,98,CHG,float,8,Change from Baseline,,,,,,,,Yes,,,
ADLS,99,CHGCAT1,text,40,Change from Baseline Category 1,,,,,,,,No,,,
ADLS,100,CHGCAT1N,integer,8,Change from Baseline Category 1 (N),,,,,,,,No,,,
ADLS,101,PCHG,float,8,Percent Change from Baseline,,,,,,,,Yes,,,
ADLS,102,PCHGCAT1,text,40,Percent Chg from Baseline Category 1,,,,,,,,No,,,
ADLS,103,PCHGCA1N,float,8,Percent Chg from Baseline Category 1 (N),,,,,,,,No,,,
ADLS,104,R2BASE,float,8,Ratio to Baseline,,,,,,,,Yes,,,
ADLS,105,R2A1LO,float,8,Ratio to Analysis Range 1 Lower Limit,,,,,,,,No,,,
ADLS,106,R2A1HI,float,8,Ratio to Analysis Range 1 Upper Limit,,,,,,,,No,,,
ADLS,107,SHIFT1,text,40,Shift 1,,,,,,,,No,,,
ADLS,108,SHIFT1N,integer,8,Shift 1 (N),,,,,,,,No,,,
ADLS,109,CRIT1,text,40,Analysis Criterion 1,,,,,,,,Yes,,,
ADLS,110,CRIT1FL,text,1,Criterion 1 Evaluation Result Flag,,,,,,,,Yes,,,
ADLS,111,CRIT1FN,integer,8,Criterion 1 Evaluation Result Flag (N),,,,,,,,Yes,,,
ADLS,112,MCRIT1,text,40,Analysis Multi-Response Criterion 1,,,,,,,,Yes,,,
ADLS,113,MCRIT1ML,text,40,Multi-Response Criterion 1 Evaluation,,,,,,,,Yes,,,
ADLS,114,MCRIT1MN,float,8,Multi-Response Criterion 1 Eval (N),,,,,,,,Yes,,,
ADLS,115,MCRIT1ML,text,40,Multi-Response Criterion y Evaluation,,,,,,,,Yes,,,
ADLS,116,MCRIT1MN,float,8,Multi-Response Criterion y Eval (N),,,,,,,,Yes,,,
ADLS,117,DTYPE,text,40,Derivation Type,,,,,,,DTYPE,Yes,,,
ADLS,118,AWRANGE,text,40,Analysis Window Valid Relative Range,,,,,,,,Yes,,,
ADLS,119,AWTARGET,integer,8,Analysis Window Target,,,,,,,,Yes,,,
ADLS,120,AWTDIFF,integer,8,Analysis Window Diff from Target,,,,,,,,Yes,,,
ADLS,121,AWLO,integer,8,Analysis Window Beginning Timepoint,,,,,,,,Yes,,,
ADLS,122,AWHI,integer,8,Analysis Window Ending Timepoint,,,,,,,,Yes,,,
ADLS,123,AWU,text,40,Analysis Window Unit,,,,,,,,Yes,,,
ADLS,124,STARTDT,integer,8,Time-to-Event Origin Date for Subject,,,,,,,,Yes,,,
ADLS,125,STARTDTM,integer,8,Time-to-Event Origin Datetime,,,,,,,,Yes,,,
ADLS,126,STARTDTF,text,1,Origin Date Imputation Flag,,,,,,,DATEFL,Yes,,,
ADLS,127,STARTDTF,text,1,Origin Time Imputation Flag,,,,,,,TIMEFL,Yes,,,
ADLS,128,CNSR,integer,8,Censor,,,,,,,,Yes,,,
ADLS,129,EVNTDESC,text,40,Event or Censoring Description,,,,,,,,Yes,,,
ADLS,130,CNSDTDSC,text,40,Censor Date Description,,,,,,,,Yes,,,
ADLS,131,ATOXGR,text,40,Analysis Toxicity Grade,,,,,,,,Yes,,,
ADLS,132,BTOXGR,text,40,Baseline Toxicity Grade,,,,,,,,Yes,,,
ADLS,133,ANRIND,text,40,Analysis Reference Range Indicator,,,,,,,,Yes,,,
ADLS,134,BNRIND,text,40,Baseline Reference Range Indicator,,,,,,,,Yes,,,
ADLS,135,ANRLO,float,8,Analysis Normal Range Lower Limit,,,,,,,,Yes,,,
ADLS,136,ANRLOC,text,40,Analysis Normal Range Lower Limit (C),,,,,,,,Yes,,,
ADLS,137,ANRHI,float,8,Analysis Normal Range Upper Limit,,,,,,,,Yes,,,
ADLS,138,ANRHIC,text,40,Analysis Normal Range Upper Limit (C),,,,,,,,Yes,,,
ADLS,139,A1LO,float,8,Analysis Range 1 Lower Limit,,,,,,,,No,,,
ADLS,140,A1LOC,text,40,Analysis Range 1 Lower Limit (C),,,,,,,,No,,,
ADLS,141,A1HI,float,8,Analysis Range 1 Upper Limit,,,,,,,,No,,,
ADLS,142,A1HIC,text,40,Analysis Range 1 Upper Limit ©,,,,,,,,No,,,
ADLS,143,A1IND,text,40,Analysis Range 1 Indicator,,,,,,,,No,,,
ADLS,144,B1IND,text,40,Baseline Analysis Range 1 Indicator,,,,,,,,No,,,
ADLS,145,ABLFL,text,1,Baseline Record Flag,,,,,,,,Yes,,,
ADLS,146,ABLFN,integer,8,Baseline Record Flag (N),,,,,,,,Yes,,,
ADLS,147,ANL01FL,text,1,Analysis Flag 01,,,,,,,,No,,,
ADLS,148,ANL01FN,integer,8,Analysis Flag 01 (N),,,,,,,,No,,,
ADLS,149,ONTRTFL,text,40,On Treatment Record Flag,,,,,,,,No,,,
ADLS,150,ONTRTFN,integer,8,On Treatment Record Flag (N),,,,,,,,No,,,
ADLS,151,LVOTFL,text,1,Last Value On Treatment Record Flag,,,,,,,,Yes,,,
ADLS,152,LVOTFN,integer,8,Last Value On Treatment Record Flag (N),,,,,,,,Yes,,,
ADLS,153,ITTRFL,text,1,Intent-To-Treat Record-Level Flag,,,,,,,,Yes,,,
ADLS,154,SAFRFL,text,1,Safety Analysis Record-Level Flag,,,,,,,,Yes,,,
ADLS,155,FASRFL,text,1,Full Analysis Set Record-Level Flag,,,,,,,,Yes,,,
ADLS,156,PPROTRFL,text,1,Per-Protocol Record-Level Flag,,,,,,,,Yes,,,
ADLS,157,COMPLRFL,text,1,Completers Record-Level Flag,,,,,,,,Yes,,,
ADLS,158,ITTPFL,text,1,Intent-To-Treat Parameter-Level Flag,,,,,,,,Yes,,,
ADLS,159,SAFPFL,text,1,Safety Analysis Parameter-Level Flag,,,,,,,,Yes,,,
ADLS,160,FASPFL,text,1,Full Analysis Set Parameter-Level Flag,,,,,,,,Yes,,,
ADLS,161,PPROTPFL,text,1,Per-Protocol Parameter-Level Flag,,,,,,,,Yes,,,
ADLS,162,COMPLPFL,text,1,Completers Parameter-Level Flag,,,,,,,,Yes,,,
ADLS,163,SRCDOM,text,40,Source Data,,,,,,,,Yes,,,
ADLS,164,SRCVAR,text,40,Source Variable,,,,,,,,Yes,,,
ADLS,165,SRCSEQ,integer,8,Source Sequence Number,,,,,,,,Yes,,,
,,,,,,,,,,,,,,,,
,,,,,,,,,,,,,,,,
ADAE,1,STUDYID,text,9,Study Identifier,1,,AE.STUDYID,,,,,Yes,,,
ADAE,2,USUBJID,text,18,Unique Subject Identifier,2,,AE.USUBJID,,,,,Yes,,,
ADAE,3,SUBJID,text,7,Subject Identifier for the Study,,,ADSL.SUBJID,,,,,Yes,,,
ADAE,4,SITEID,text,7,Study Site Identifier,,,ADSL.SITEID,,,,,Yes,,,
ADAE,5,AESEQ,integer,8,Sequence Number,,,AE.AESEQ,,,,,Yes,,,
ADAE,6,AETERM,text,,Reported Term,,,AE.AETERM,,,,,Yes,,,
ADAE,7,AEDECOD,text,,Dictionary-Derived Term,,,AE.AEDECOD,,,,,Yes,,,
ADAE,8,AEBODSYS,text,,Body System or Organ Class,,,AE.AEBODSYS,,,,,Yes,,,
ADAE,9,AEBDSYCD,text,,Body System or Organ Class Code,,,AE.AEBDSYCD,,,,,Yes,,,
ADAE,10,AELLT,text,,Lowest Level Term,,,AE.AELLT,,,,,Yes,,,
ADAE,11,AELLTCD,text,,Lowest Level Term Code,,,AE.AELLTCD,,,,,Yes,,,
ADAE,12,AEPTCD,text,,Preferred Term Code,,,AE.AEPTCD,,,,,Yes,,,
ADAE,13,AEHLT,text,,High Level Term,,,AE.AEHLT,,,,,Yes,,,
ADAE,14,AEHLTCD,text,,High Level Term Code,,,AE.AEHLTCD,,,,,Yes,,,
ADAE,15,AEHLGT,text,,High Level Group Term,,,AE.AEHLGT,,,,,Yes,,,
ADAE,16,AEHLGTCD,text,,High Level Group Term Code,,,AE.AEHLGTCD,,,,,Yes,,,
ADAE,17,AESOC,text,,Primary System Organ Class,,,AE.AESOC,,,,,Yes,,,
ADAE,18,AESOCCD,text,,Primary System Organ Class Code,,,AE.AESOCCD,,,,,Yes,,,
ADAE,19,CMTRT,text,,"Reported Name of Drug, Med, or Therapy",,,CM.CMTRT,,,,,No,,,
ADAE,20,CMDECOD,text,,Standardized Medication Name,,,CM.CMDECOD,,,,,No,,,
ADAE,21,CMCLAS,text,,Medication Class,,,CM.CMCLAS,,,,,No,,,
ADAE,22,CMCLASCD,text,,Medication Class Code,,,CM.CMCLASCD,,,,,No,,,
ADAE,23,ATC1,text,,ATC Level 1 Text,,,,,,,,No,,,
ADAE,24,ATC1CD,text,,ATC Level 1 Code,,,,,,,,No,,,
ADAE,25,AECAT,text,,Category,,,AE.AECAT,,,,,Yes,,,
ADAE,26,AESCAT,text,,Subcategory,,,AE.AESCAT,,,,,Yes,,,
ADAE,27,ACAT1,text,,Analysis Category 1,,,,,,,,No,,,
ADAE,28,AESTDTC,text,16,Start Date/Time of Observation,,,,,,,ISO 8601,Yes,,,
ADAE,29,ASTDT,integer,8,Analysis Start Date,,,,,,,,Yes,,,
ADAE,30,ASTTM,integer,8,Analysis Start Time,,,,,,,,Yes,,,
ADAE,31,ASTDTM,integer,8,Analysis Start Date/Time,,,,,,,,Yes,,,
ADAE,32,ASTDTF,text,1,Analysis Start Date Imputation Flag,,,,,,,DATEFL,Yes,,,
ADAE,33,ASTTMF,text,1,Analysis Start Time Imputation Flag,,,,,,,TIMEFL,Yes,,,
ADAE,34,AEENDTC,text,16,End Date/Time of Observation,,,,,,,ISO 8601,Yes,,,
ADAE,35,AENDT,integer,8,Analysis End Date,,,,,,,,Yes,,,
ADAE,36,AENTM,integer,8,Analysis End Time,,,,,,,,Yes,,,
ADAE,37,AENDTM,integer,8,Analysis End Date/Time,,,,,,,,Yes,,,
ADAE,38,AENDTF,text,1,Analysis End Date Imputation Flag,,,,,,,DATEFL,Yes,,,
ADAE,39,AENTMF,text,1,Analysis End Time Imputation Flag,,,,,,,TIMEFL,Yes,,,
ADAE,40,ASTDY,integer,8,Analysis Start Relative Day,,,,,,,,Yes,,,
ADAE,41,AESTDY,integer,8,Study Day of Start of Observation,,,AE.AESTDY,,,,,Yes,,,
ADAE,42,AENDY,integer,8,Analysis End Relative Day,,,,,,,,Yes,,,
ADAE,43,AEENDY,integer,8,Study Day of End of Observation,,,AE.AEENDY,,,,,Yes,,,
ADAE,44,ADURN,integer,8,Analysis Duration (N),,,,,,,,Yes,,,
ADAE,45,ADURU,text,40,Analysis Duration Units,,,,,,,UNIT,Yes,,,
ADAE,46,AEDUR,text,16,Duration of AE,,,AE.AEDUR,,,,ISO 8601,No,,,
ADAE,47,APERIOD,integer,8,Period,,,,,,,,No,,,
ADAE,48,APERIODC,text,40,Period (C),,,,,,,,No,,,
ADAE,49,APHASE,text,40,Phase,,,,,,,,No,,,
ADAE,50,AEOCCUR,text,1,AE Occurrence,,,AE.AEOCCUR,,,,NY,Yes,,,
ADAE,51,AEPRESP,text,1,AE Pre-Specified,,,AE.AEPRESP,,,,NY,Yes,,,
ADAE,52,ANL01FL,text,1,Analysis Flag 01,,,,,,,,No,,,
ADAE,53,TRTEMFL,text,1,Treatment Emergent Analysis Flag,,,,,,,Y,No,,,
ADAE,54,AETRTEM,text,1,Treatment Emergent Flag,,,,,,,NY,No,,,
ADAE,55,ONTRTFL,text,1,On Treatment Record Flag,,,,,,,Y,No,,,
ADAE,56,PREFL,text,1,Pre-treatment Flag,,,,,,,Y,No,,,
ADAE,57,FUPFL,text,1,Follow-up Flag,,,,,,,Y,Yes,,,
ADAE,58,AOCCFL,text,1,1st Occurrence within Subject Flag,,,,,,,Y,Yes,,,
ADAE,59,AOCCPFL,text,1,1st Occurrence of Preferred Term Flag,,,,,,,Y,Yes,,,
ADAE,60,AOCCIFL,text,1,1st Max Sev./Int. Occurrence Flag,,,,,,,Y,Yes,,,
ADAE,61,AOCCPIFL,text,1,1st Max Sev./Int. Occur Within PT Flag,,,,,,,Y,Yes,,,
ADAE,62,AOCC01FL,text,1,1st Occurrence of ….,,,,,,,Y,Yes,,,
ADAE,63,AOCCSFL,text,1,1st Occurrence of SOC Flag,,,,,,,Y,Yes,,,
ADAE,64,AOCCSIFL,text,1,1st Max Sev./Int. Occur Within SOC Flag,,,,,,,Y,Yes,,,
ADAE,65,DOSEON,integer,8,Treatment Dose at Record Start,,,,,,,,Yes,,,
ADAE,66,DOSCUMA,integer,8,Cumulative Actual Treatment Dose,,,,,,,,Yes,,,
ADAE,67,DOSEU,text,40,Treatment Dose Units,,,,,,,UNIT,Yes,,,
ADAE,68,AESER,text,1,Serious Event,,,AE.AESER,,,,NY,Yes,,,
ADAE,69,AESEV,text,1,Severity/Intensity,,,AE.AESEV,,,,AESEV,Yes,,,
ADAE,70,AESEVN,float,8,Severity/Intensity (N),,,,,,,"1,2,3",Yes,,,
ADAE,71,ASEV,text,1,Analysis Severity/Intensity,,,,,,,,Yes,,,
ADAE,72,ASEVN,integer,8,Analysis Severity/Intensity (N),,,,,,,"1,2,3",Yes,,,
ADAE,73,SEVGR1,text,1,Pooled Severity Group 1,,,,,,,,No,,,
ADAE,74,SEVGR1N,integer,8,Pooled Severity Group 1 (N),,,,,,,,No,,,
ADAE,75,AEREL,text,1,Causality,,,AE.AEREL,,,,,Yes,,,
ADAE,76,AERELN,integer,8,Causality (N),,,,,,,,Yes,,,
ADAE,77,AREL,text,1,Analysis Causality,,,,,,,,Yes,,,
ADAE,78,ARELN,integer,8,Analysis Causality (N),,,,,,,,Yes,,,
ADAE,79,RELGR1,text,1,Pooled Causality Group 1,,,,,,,,No,,,
ADAE,80,RELGR1N,integer,8,Pooled Causality Group 1 (N),,,,,,,,No,,,
ADAE,81,AETOXGR,text,1,Standard Toxicity Grade,,,AE.AETOXGR,,,,,Yes,,,
ADAE,82,AETOXGRN,integer,8,Standard Toxicity Grade (N),,,,,,,,Yes,,,
ADAE,83,ATOXGR,text,1,Analysis Toxicity Grade,,,,,,,,Yes,,,
ADAE,84,ATOXGRN,integer,8,Analysis Toxicity Grade (N),,,,,,,,Yes,,,
ADAE,85,TOXGGR1,text,1,Pooled Toxicity Grade Group 1,,,,,,,,No,,,
ADAE,86,TOXGGR1N,integer,8,Pooled Toxicity Grade 1 (N),,,,,,,,No,,,
ADAE,87,AEACN,text,40,Action Taken with Study Treatment,,,,,,,ACN,Yes,,,
ADAE,88,CMSTAT,text,1,Completion Status,,,CM.CMSTAT,,,,,No,,,
ADAE,89,CMINDC,text,40,Indication,,,CM.CMINDC,,,,,No,,,
ADAE,90,CMDOSE,float,8,Dose per Administration,,,CM.CMDOSE,,,,,No,,,
ADAE,91,CMDOSFRM,text,40,Dose Form,,,CM.CMDOSFRM,,,,,No,,,
ADAE,92,CMDOSRGM,text,40,Intended Dose Regimen,,,CM.CMDOSRGM,,,,,No,,,
ADAE,93,CMROUTE,text,40,Route of Administration,,,CM.CMROUTE,,,,,No,,,
ADAE,94,SMQ01NAM,text,40,SMQ 01 Name,,,,,,,,Yes,,,
ADAE,95,SMQ01CD,integer,8,SMQ 01 Code,,,,,,,,Yes,,,
ADAE,96,SMQ01SC,text,40,SMQ 01 Scope,,,,,,,"BROAD,NARROW",Yes,,,
ADAE,97,SMQ01SCN,integer,8,SMQ 01 Scope (N),,,,,,,"1,2",Yes,,,
ADAE,98,CQ01NAM,text,40,Customized Query 01 Name,,,,,,,,Yes,,,
ADAE,99,DECDORGw,,40,PT in Original Dictionary w,,,,,,,,No,,,
ADAE,100,BDSYORGw,,40,SOC in Original Dictionary w,,,,,,,,No,,,
ADAE,101,HLGTORGw,,40,HLGT in Original Dictionary w,,,,,,,,No,,,
ADAE,102,HLTORGw,,40,HLT in Original Dictionary w,,,,,,,,No,,,
ADAE,103,LLTORGw,,40,LLT in Original Dictionary w,,,,,,,,No,,,
ADAE,104,LLTNORGw,,40,LLT Code in Original Dictionary w,,,,,,,,No,,,
ADAE,105,DECDORGw,,40,Standardized Med Name in Orig Dict w,,,,,,,,No,,,
ADAE,106,CLASORGw,,40,Medication Class in Orig Dictionary w,,,,,,,,No,,,
ADAE,107,CLCDORGw,,40,Medication Class Code in Orig Dict w,,,,,,,,No,,,
ADAE,108,AT1CORGw,,40,ATC Level y Text in Orig Dictionary w,,,,,,,,No,,,
