DOMAIN,VARNUM,VARIABLE,TYPE,LENGTH,LABEL,KEYSEQUENCE,SIGNIFICANTDIGITS,ORIGIN,COMMENTOID,DISPLAYFORMAT,COMPUTATIONMETHODOID,CODELISTNAME,MANDATORY,ROLE,SASFIELDNAME
DM,1,STUDYID,text,8,Study Identifier,1,,Protocol,,,,,Yes,Identifier,
DM,2,DOMAIN,text,2,Domain Abbreviation,,,Derived,,,SETDOMAIN,,Yes,Identifier,
DM,3,USUBJID,text,18,Unique Subject Identifier,2,,Derived,,,SETUSUBJID,,Yes,Identifier,
DM,4,SUBJID,text,9,Subject Identifier for the Study,,,Assigned,,,,,Yes,Identifier,
DM,5,RFSTDTC,date,16,Subject Reference Start Date/Time,,,Derived,,,DM.RFSTDTC,ISO 8601,Yes,Record Qualifier,
DM,6,RFENDTC,date,16,Subject Reference End Date/Time,,,Derived,,,DM.RFENDTC,ISO 8601,Yes,Record Qualifier,
DM,7,RFXSTDTC,date,16,Date/Time of First Study Treatment,,,Derived,,,DM.RFXSTDTC,ISO 8601,Yes,Record Qualifier,
DM,8,RFXENDTC,date,16,Date/Time of Last Study Treatment,,,Derived,,,DM.RFXENDTC,ISO 8601,Yes,Record Qualifier,
DM,9,RFICDTC,date,16,Date/Time of Informed Consent,,,CRF Page 1.1,,,,ISO 8601,Yes,Record Qualifier,
DM,10,RFPENDTC,date,16,Date/Time of End of Participation,,,Derived,,,DM.RFPENDTC,ISO 8601,Yes,Record Qualifier,
DM,11,DTHDTC,date,16,Date/Time of Death,,,CRF Page 600.1,,,DM.DTHDTC,ISO 8601,Yes,Record Qualifier,
DM,12,DTHFL,text,1,Subject Death Flag,,,CRF Page 600.1,,,,NY,Yes,Record Qualifier,
DM,13,SITEID,text,2,Study Site Identifier,,,CRF Page 600.1,,,,,Yes,Record Qualifier,
DM,14,INVID,text,4,Investigator Identifier,,,Assigned,,,,,No,Record Qualifier,
DM,15,INVNAM,text,11,Investigator Name,,,Assigned,,,,,No,Synonym Qualifier,
DM,16,BRTHDTC,date,16,Date/Time of Birth,,,CRF Page 1.1,,,,ISO 8601,No,Record Qualifier,
DM,17,AGE,integer,8,Age,,,Derived,,,DM.AGE,,Yes,Record Qualifier,
DM,18,AGEU,text,5,Age Units,,,Assigned,,,,AGEU,Yes,Variable Qualifier,
DM,19,SEX,text,1,Sex,,,CRF Page 1.1,,,,SEX,Yes,Record Qualifier,
DM,20,RACE,text,39,Race,,,CRF Page 1.1,,,,RACE,Yes,Record Qualifier,
DM,21,ETHNIC,text,21,Ethnicity,,,Assigned,,,,ETHNIC,No,Record Qualifier,
DM,22,ARMCD,text,20,Planned Arm Code,,,Protocol,,,,,Yes,Record Qualifier,
DM,23,ARM,text,100,Description of Planned Arm,,,Protocol,,,,,Yes,Synonym Qualifier,
DM,24,ACTARMCD,text,20,Actual Arm Code,,,Derived,,,DM.ACTARMCD,,Yes,Record Qualifier,
DM,25,ACTARM,text,100,Description of Actual Arm,,,Derived,,,DM.ACTARM,,Yes,Synonym Qualifier,
DM,26,COUNTRY,text,3,Country,,,CRF Page 1.1,,,,COUNTRY,Yes,Record Qualifier,
DM,27,DMDTC,text,16,Date/Time of Collection,,,Derived,,,DM.DMDTC,ISO 8601,No,Timing,
DM,28,DMDY,text,8,Study Day of Collection,,,Derived,,,DM.DMDY,,No,Timing,
,,,,,,,,,,,,,,,
AE,1,STUDYID,text,8,Study Identifier,1,,Protocol,,,,,Yes,Identifier,
AE,2,DOMAIN,text,2,Domain Abbreviation,,,Derived,,,SETDOMAIN,,Yes,Identifier,
AE,3,USUBJID,text,18,Unique Subject Identifier,2,,Derived,,,SETUSUBJID,,Yes,Identifier,
AE,4,AESEQ,integer,8,Sequence Number,,,Assigned,,,AE.AESEQ,,Yes,Identifier,
AE,5,AEGRPID,text,10,Group ID,,,Assigned,,,,,No,Identifier,
AE,6,AEREFID,text,10,Reference ID,,,Assigned,,,,,Yes,Identifier,
AE,7,AESPID,text,9,Sponsor-Defined Identifier,,,"CRF Page 600.1 to 605.1, 681.1, 882.1",,,,,Yes,Identifier,
AE,8,AETERM,text,100,Reported Term for the Adverse Event,,,"CRF Page 600.1 to 605.1, 681.1, 882.2",,,,,Yes,Topic,
AE,9,AEMODIFY,text,40,Modified Reported Term,,,Assigned,,,,,No,Synonym Qualifier,
AE,10,AELLT,text,200,Lowest Level Term,,,Derived,,,AE.AEELT,MedDRA,Yes,Variable Qualifier,
AE,11,AELLTCD,integer,8,Lowest Level Term Code,,,Derived,,,AE.AELLTCD,MedDRA,Yes,Variable Qualifier,
AE,12,AEDECOD,text,200,Dictionary-Derived Term,3,,Derived,,,AE.AEDECOD,MedDRA,Yes,Synonym Qualifier,
AE,13,AEPTCD,integer,8,Preferred Term Code,,,Derived,,,AE.AEPTCD,MedDRA,Yes,Variable Qualifier,
AE,14,AEHLT,text,200,High Level Term,,,Derived,,,AE.AEHLT,MedDRA,Yes,Variable Qualifier,
AE,15,AEHLTCD,integer,8,High Level Term Code,,,Derived,,,AE.AEHLTCD,MedDRA,Yes,Variable Qualifier,
AE,16,AEHLGT,text,200,High Level Group Term,,,Derived,,,AE.AEHLGT,MedDRA,Yes,Variable Qualifier,
AE,17,AEHLGTCD,integer,8,High Level Group Term Code,,,Derived,,,AE.AEHLGTCD,MedDRA,Yes,Variable Qualifier,
AE,18,AECAT,text,80,Category for Adverse Event,,,Assigned,,,,,No,Grouping Qualifier,
AE,19,AESCAT,text,40,Subcategory for Adverse Event,,,Assigned,,,,,No,Grouping Qualifier,
AE,20,AEPRESP,text,1,Pre-Specified Adverse Event,,,Assigned,,,,NY,No,Variable Qualifier,
AE,21,AEBODSYS,text,200,Body System or Organ Class,,,Derived,,,AE.AEBODSYS,,Yes,Record Qualifier,
AE,22,AEBDSYCD,integer,8,Body System or Organ Class Code,,,Derived,,,AE.AEBDSCD,MedDRA,Yes,Variable Qualifier,
AE,23,AESOC,text,200,Primary System Organ Class,,,Derived,,,AE.AESOC,MedDRA,Yes,Variable Qualifier,
AE,24,AESOCCD,integer,8,Primary System Organ Class Code,,,Derived,,,AE.AESOCCD,MedDRA,Yes,Variable Qualifier,
AE,25,AELOC,text,40,Location of Event,,,Assigned,,,,LOC,No,Record Qualifier,
AE,26,AESEV,text,8,Severity/Intensity,,,Assigned,,,,AESEV,No,Record Qualifier,
AE,27,AESER,text,1,Serious Event,,,"CRF Page 600.1 to 605.1, 681.1, 882.1",,,,NY,Yes,Record Qualifier,
AE,28,AEACN,text,17,Action Taken with Study Treatment,,,"CRF Page 600.1 to 605.1, 681.1, 882.1",,,,ACN,Yes,Record Qualifier,
AE,29,AEACNOTH,text,40,Other Action Taken,,,Assigned,,,,,No,Record Qualifier,
AE,30,AEREL,text,1,Causality,,,"CRF Page 600.1 to 605.1, 681.1, 882.1",,,,,Yes,Record Qualifier,
AE,31,AERELNST,text,40,Relationship to Non-Study Treatment,,,Assigned,,,,,No,Record Qualifier,
AE,32,AEPATT,text,40,Pattern of Adverse Event,,,"CRF Page 600.1 to 605.1, 681.1, 882.1",,,,,Yes,Record Qualifier,
AE,33,AEOUT,text,31,Outcome of Adverse Event,,,"CRF Page 600.1 to 605.1, 681.1, 882.1",,,,OUT,Yes,Record Qualifier,
AE,34,AESCAN,text,1,Involves Cancer,,,Assigned,,,,NY,No,Record Qualifier,
AE,35,AESCONG,text,1,Congenital Anomaly or Birth Defect,,,"CRF Page 600.1 to 605.1, 681.1, 882.1",,,,NY,Yes,Record Qualifier,
AE,36,AESDISAB,text,1,Persist or Signif Disability/Incapacity,,,"CRF Page 600.1 to 605.1, 681.1, 882.1",,,,NY,Yes,Record Qualifier,
AE,37,AESDTH,text,1,Results in Death,,,"CRF Page 600.1 to 605.1, 681.1, 882.1",,,,NY,Yes,Record Qualifier,
AE,38,AESHOSP,text,1,Requires or Prolongs Hospitalization,,,"CRF Page 600.1 to 605.1, 681.1, 882.1",,,,NY,Yes,Record Qualifier,
AE,39,AESLIFE,text,1,Is Life Threatening,,,"CRF Page 600.1 to 605.1, 681.1, 882.1",,,,NY,Yes,Record Qualifier,
AE,40,AESOD,text,1,Occurred with Overdose,,,"CRF Page 600.1 to 605.1, 681.1, 882.1",,,,NY,Yes,Record Qualifier,
AE,41,AESMIE,text,1,Other Medically Important Serious Event,,,"CRF Page 600.1 to 605.1, 681.1, 882.1",,,,NY,Yes,Record Qualifier,
AE,42,AECONTRT,text,1,Concomitant or Additional Trtmnt Given,,,"CRF Page 600.1 to 605.1, 681.1, 882.1",,,,NY,Yes,Record Qualifier,
AE,43,AETOXGR,text,40,Standard Toxicity Grade,,,"CRF Page 600.1 to 605.1, 681.1, 882.1",,,,,Yes,Record Qualifier,
AE,44,AESTDTC,date,16,Start Date/Time of Adverse Event,4,,"CRF Page 600.1 to 605.1, 681.1, 882.1",,,,ISO 8601,Yes,Timing,
AE,45,AEENDTC,date,16,End Date/Time of Adverse Event,,,"CRF Page 600.1 to 605.1, 681.1, 882.1",,,,ISO 8601,Yes,Timing,
AE,46,AESTDY,integer,8,Study Day of Start of Adverse Event,,,Derived,,,AE.AESTDY,,Yes,Timing,
AE,47,AEENDY,integer,8,Study Day of End of Adverse Event,,,Derived,,,AE.AEENDY,,Yes,Timing,
AE,48,AEDUR,text,16,Duration of Adverse Event,,,Derived,,,AE.AEDUR,ISO 8601,No,Timing,
AE,49,AEENRF,text,12,End Relative to Reference Period,,,Derived,,,AE.AEENRF,STENRF,No,Timing,
AE,50,AEENRTPT,text,12,End Relative to Reference Time Point,,,Assigned,,,AE.AEENTRTPT,STENRF,No,Timing,
AE,51,AEENTPT,text,16,End Reference Time Point,,,Assigned,,,AE.AEENTPT,ISO 8601,No,Timing,
AE,52,TAETORD,integer,8,Planned Order of Element within Arm,,,Protocol,,,,,Yes,Timing,
AE,53,EPOCH,text,40,Epoch,,,Protocol,,,,EPOCH,Yes,Timing,
,,,,,,,,,,,,,,,
CE,1,STUDYID,text,8,Study Identifier,1,,Protocol,,,,,Yes,Identifier,
CE,2,DOMAIN,text,2,Domain Abbreviation,,,Derived,,,SETDOMAIN,,Yes,Identifier,
CE,3,USUBJID,text,18,Unique Subject Identifier,2,,Derived,,,SETUSUBJID,,Yes,Identifier,
CE,4,CESEQ,integer,8,Sequence Number,,,Assigned,,,CE.CESEQ,,Yes,Identifier,
CE,5,CEGRPID,text,10,Group ID,,,Assigned,,,,,No,Identifier,
CE,6,CEREFID,text,10,Reference ID,,,Assigned,,,,,No,Identifier,
CE,7,CESPID,text,9,Sponsor-Defined Identifier,,,"CRF Page 49.1, 73.1, 97.1, 121.1, 145.1, 817.1",,,,,No,Identifier,
CE,8,CETERM,text,100,Reported Term for the Clinical Event,3,,"CRF Page 49.1, 73.1, 97.1, 121.1, 145.1, 817.2",,,,,Yes,Topic,
CE,9,CEDECOD,text,100,Dictionary-Derived Term,,,Derived,,,CE.CEDECOD,,Yes,Synonym Qualifier,
CE,10,CECAT,text,100,Category for Clinical Event,,,Derived,,,CE.CECAT,,Yes,Grouping Qualifier,
CE,11,CESCAT,text,100,Category for Clinical Event,,,Derived,,,CE.CESCAT,,No,Grouping Qualifier,
CE,12,CEPRESP,text,1,Clinical Event Pre-Specified,,,"CRF Page 49.1, 73.1, 97.1, 121.1, 145.1, 817.2",,,,NY,Yes,Variable Qualifier,
CE,13,CEOCCUR,text,1,Clinical Event Occurrence,,,"CRF Page 49.1, 73.1, 97.1, 121.1, 145.1, 817.3",,,,NY,Yes,Record Qualifier,
CE,14,CESTAT,text,8,Completion Status,,,"CRF Page 49.1, 73.1, 97.1, 121.1, 145.1, 817.4",,,,ND,No,Record Qualifier,
CE,15,CEREASND,text,40,Reason Clinical Event Not Collected,,,"CRF Page 49.1, 73.1, 97.1, 121.1, 145.1, 817.3",,,,,No,Record Qualifier,
CE,16,CEBODSYS,text,200,Body System or Organ Class,,,"CRF Page 49.1, 73.1, 97.1, 121.1, 145.1, 817.4",,,,,Yes,Record Qualifier,
CE,17,CESEV,text,40,Severity/Intensity,,,"CRF Page 49.1, 73.1, 97.1, 121.1, 145.1, 817.5",,,,,No,Record Qualifier,
CE,18,CEDTC,date,16,Date/Time of Event Collection,,,"CRF Page 49.1, 73.1, 97.1, 121.1, 145.1, 817.6",,,,ISO 8601,Yes,Timing,
CE,19,CESTDTC,date,16,Start Date/Time of Clinical Event,4,,"CRF Page 49.1, 73.1, 97.1, 121.1, 145.1, 817.7",,,,ISO 8601,No,Timing,
CE,20,CEENDTC,date,16,End Date/Time of Clinical Event,,,"CRF Page 49.1, 73.1, 97.1, 121.1, 145.1, 817.8",,,,ISO 8601,No,Timing,
CE,21,CEDY,integer,8,Study Day of Event Collection,,,Derived,,,,,Yes,Timing,
CE,22,CESTRF,text,12,Start Relative to Reference Period,,,"CRF Page 49.1, 73.1, 97.1, 121.1, 145.1, 817.1",,,,STENRF,No,Timing,
CE,23,CEENRF,text,12,End Relative to Reference Period,,,"CRF Page 49.1, 73.1, 97.1, 121.1, 145.1, 817.1",,,,STENRF,No,Timing,
CE,24,CESTRTPT,text,12,Start Relative to Reference Time Point,,,"CRF Page 49.1, 73.1, 97.1, 121.1, 145.1, 817.1",,,,STENRF,No,Timing,
CE,25,CESTTPT,date,40,Start Reference Time Point,,,"CRF Page 49.1, 73.1, 97.1, 121.1, 145.1, 817.1",,,,,No,Timing,
CE,26,CEENRTPT,text,12,End Relative to Reference Time Point,,,"CRF Page 49.1, 73.1, 97.1, 121.1, 145.1, 817.1",,,,STENRF,No,Timing,
CE,27,CEENTPT,text,40,End Reference Time Point,,,"CRF Page 49.1, 73.1, 97.1, 121.1, 145.1, 817.2",,,,,Yes,Timing,
,,,,,,,,,,,,,,,
CM,1,STUDYID,text,8,Study Identifier,1,,Protocol,,,,,Yes,Identifier,
CM,2,DOMAIN,text,2,Domain Abbreviation,,,Derived,,,SETDOMAIN,,Yes,Identifier,
CM,3,USUBJID,text,18,Unique Subject Identifier,2,,Derived,,,SETUSUBJID,,Yes,Identifier,
CM,4,CMSEQ,integer,8,Sequence Number,,,Assigned,,,CM.CMSEQ,,Yes,Identifier,
CM,5,CMGRPID,text,10,Group ID,,,Assigned,,,,,No,Identifier,
CM,6,CMSPID,text,9,Sponsor-Defined Identifier,,,CRF Page 562.1,,,,,No,Identifier,
CM,7,CMTRT,text,40,"Reported Name of Drug, Med, or Therapy",3,,CRF Page 562.1,,,,,Yes,Topic,
CM,8,CMMODIFY,text,40,Modified Reported Name,,,Derived,,,CM.CMMODIFY,,No,Synonym Qualifier,
CM,9,CMDECOD,text,40,Standardized Medication Name,,,Derived,,,CM.CDECOD,,Yes,Synonym Qualifier,
CM,10,CMCAT,text,100,Category for Medication,,,Assigned,,,,,Yes,Grouping Qualifier,
CM,11,CMSCAT,text,41,Subcategory for Medication,,,Assigned,,,,,Yes,Grouping Qualifier,
CM,12,CMPRESP,text,1,CM Pre-Specified,,,CRF Page 562.1,,,,NY,No,Variable Qualifier,
CM,13,CMOCCUR,text,1,CM Occurrence,,,CRF Page 562.1,,,,NY,Yes,Record Qualifier,
CM,14,CMSTAT,text,8,Completion Status,,,CRF Page 562.1,,,,ND,No,Record Qualifier,
CM,15,CMREASND,text,40,Reason Medication Not Collected,,,CRF Page 562.1,,,,,No,Record Qualifier,
CM,16,CMINDC,text,40,Indication,,,CRF Page 562.1,,,,,No,Record Qualifier,
CM,17,CMCLAS,text,40,Medication Class,,,Derived,,,CM.CMCLAS,,Yes,Variable Qualifier,
CM,18,CMCLASCD,text,40,Medication Class Code,,,Derived,,,CM.CMCLASCD,,Yes,Variable Qualifier,
CM,19,CMDOSE,float,8,Dose per Administration,,,Assigned,,,,,Yes,Record Qualifier,
CM,20,CMDOSTXT,text,40,Dose Description,,,CRF Page 562.1,,,,,No,Record Qualifier,
CM,21,CMDOSU,text,40,Dose Units,,,CRF Page 562.1,,,,UNIT,Yes,Variable Qualifier,
CM,22,CMDOSFRM,text,40,Dose Form,,,CRF Page 562.1,,,,FRM,No,Variable Qualifier,
CM,23,CMDOSFRQ,text,40,Dosing Frequency per Interval,,,CRF Page 562.1,,,,FREQ,No,Variable Qualifier,
CM,24,CMDOSTOT,text,40,Total Daily Dose,,,CRF Page 562.1,,,,,No,Record Qualifier,
CM,25,CMDOSRGM,text,40,Intended Dose Regimen,,,CRF Page 562.1,,,,,No,Variable Qualifier,
CM,26,CMROUTE,text,40,Route of Administration,,,Assigned,,,,ROUTE,Yes,Variable Qualifier,
CM,27,CMSTDTC,date,16,Start Date/Time of Medication,4,,CRF Page 562.1,,,,ISO 8601,Yes,Timing,
CM,28,CMENDTC,date,16,End Date/Time of Medication,,,CRF Page 562.1,,,,ISO 8601,Yes,Timing,
CM,29,CMSTDY,integer,8,Study Day of Start of Medication,,,Derived,,,CM.CMSTDY,,Yes,Timing,
CM,30,CMENDY,integer,8,Study Day of End of Medication,,,Assigned,,,CM.CMENDY,,Yes,Timing,
CM,31,CMDUR,date,16,Duration of Medication,,,Assigned,,,,ISO 8601,No,Timing,
CM,32,CMSTRF,text,12,Start Relative to Reference Period,,,Assigned,,,,STENRF,No,Timing,
CM,33,CMENRF,text,12,End Relative to Reference Period,,,Assigned,,,,STENRF,No,Timing,
CM,34,CMSTRTPT,text,12,Start Relative to Reference Time Point,,,Assigned,,,,STENRF,Yes,Timing,
CM,35,CMSTTPT,text,20,Start Reference Time Point,,,Assigned,,,,,Yes,Timing,
CM,36,CMENRTPT,text,12,End Relative to Reference Time Point,,,Assigned,,,,STENRF,Yes,Timing,
CM,37,CMENTPT,text,20,End Reference Time Point,,,Assigned,,,,,Yes,Timing,
,,,,,,,,,,,,,,,
TA,1,STUDYID,text,8,Study Identifier,1,,Protocol,,,,,Yes,Identifier,
TA,2,DOMAIN,text,2,Domain Abbreviation,,,Derived,,,SETDOMAIN,,Yes,Identifier,
TA,3,ARMCD,text,20,Planned Arm Code,2,,Protocol,,,,,Yes,Topic,
TA,4,ARM,text,100,Description of Planned Arm,,,Protocol,,,,,Yes,Synonym Qualifier,
TA,5,TAETORD,integer,8,Planned Order of Element within Arm,3,,Protocol,,,,,Yes,Timing,
TA,6,ETCD,text,8,Element Code,,,Protocol,,,,,Yes,Synonym Qualifier,
TA,7,ELEMENT,text,200,Description of Element,,,Protocol,com.ELEMENT,,,,Yes,Synonym Qualifier,
TA,8,TABRANCH,text,40,Branch,,,Protocol,,,,,Yes,Rule,
TA,9,TATRANS,text,120,Transition Rule,,,Protocol,,,,,Yes,Rule,
TA,10,EPOCH,text,40,Epoch,,,Protocol,,,,EPOCH,Yes,Timing,
,,,,,,,,,,,,,,,
TE,1,STUDYID,text,8,Study Identifier,1,,Protocol,,,,,Yes,Identifier,
TE,2,DOMAIN,text,2,Domain Abbreviation,,,Derived,,,SETDOMAIN,,Yes,Identifier,
TE,3,ETCD,text,8,Element Code,2,,Protocol,,,,,Yes,Topic,
TE,4,ELEMENT,text,200,Description of Element,,,Protocol,com.ELEMENT,,,,Yes,Synonym Qualifier,
TE,5,TESTRL,text,120,Rule for Start of Element,,,Protocol,,,,,Yes,Rule,
TE,6,TEENRL,text,120,Rule for End of Element,,,Protocol,,,,,Yes,Rule,
TE,7,TEDUR,date,16,Planned Duration of Element,,,Protocol,,,,,Yes,Identifier,
,,,,,,,,,,,,,,,
TI,1,STUDYID,text,8,Study Identifier,1,,Protocol,,,,,Yes,Identifier,
TI,2,DOMAIN,text,2,Domain Abbreviation,,,Derived,,,SETDOMAIN,,Yes,Identifier,
TI,3,IETESTCD,text,8,Incl/Excl Criterion Short Name,2,,Protocol,,,,,Yes,Topic,
TI,4,IETEST,text,200,Inclusion/Exclusion Criterion,,,Protocol,,,,,Yes,Synonym Qualifier,
TI,5,IECAT,text,9,Inclusion/Exclusion Category,,,Protocol,,,,IECAT,Yes,Grouping Qualifier,
TI,6,IESCAT,text,20,Inclusion/Exclusion Subcategory,,,Protocol,,,,,No,Grouping Qualifier,
TI,7,TIRL,text,40,Inclusion/Exclusion Criterion Rule,,,Protocol,,,,,No,Rule,
TI,8,TIVERS,text,40,Protocol Criteria,,,Protocol,,,,,No,Record Qualifier,
,,,,,,,,,,,,,,,
TD,1,STUDYID,text,8,Study Identifier,1,,Protocol,,,,,Yes,Identifier,
TD,2,DOMAIN,text,2,Domain Abbreviation,,,Derived,,,SETDOMAIN,,Yes,Identifier,
TD,3,TDORDER,integer,8,Sequence of Planned Assessment Schedule,2,,Derived,,,METADATAENTRY,,Yes,Timing,
TD,4,TDANCVAR,text,8,Anchor Variable Name,3,,Derived,,,METADATAENTRY,,Yes,Timing,
TD,5,TDSTOFF,date,16,Offset from the Anchor,,,Derived,,,METADATAENTRY,ISO 8601,Yes,Timing,
TD,6,TDTGTPAI,date,16,Planned Assessment Interval,,,Derived,,,METADATAENTRY,ISO 8601,Yes,Timing,
TD,7,TDMINPAI,date,16,Planned Assessment Interval Minimum,,,Derived,,,METADATAENTRY,ISO 8601,Yes,Timing,
TD,8,TDMAXPAI,date,16,Planned Assessment Interval Maximum,,,Derived,,,METADATAENTRY,ISO 8601,Yes,Timing,
TD,9,TDNUMRPT,integer,8,Maximum Number of Actual Assessments,,,Derived,,,METADATAENTRY,,Yes,Record Qualifier,
,,,,,,,,,,,,,,,
TS,1,STUDYID,text,8,Study Identifier,1,,Protocol,,,,,Yes,Identifier,
TS,2,DOMAIN,text,2,Domain Abbreviation,,,Derived,,,SETDOMAIN,,Yes,Identifier,
TS,3,TSSEQ,integer,8,Sequence Number,3,,Protocol,,,,,Yes,Identifier,
TS,4,TSGRPID,text,40,Group ID,,,Protocol,,,,,Yes,Identifier,
TS,5,TSPARMCD,text,8,Trial Summary Parameter Short Name,2,,Protocol,,,,TSPARMCD,Yes,Topic,
TS,6,TSPARM,text,40,Trial Summary Parameter,,,Protocol,,,,TSPARM,Yes,Synonym Qualifier,
TS,7,TSVAL,text,200,Parameter Value,,,Protocol,,,,,Yes,Result Qualifier,
TS,8,TSVALNF,text,4,Parameter Null Flavor,,,Protocol,,,,NULLFLAVOR,Yes,Result Qualifier,
TS,9,TSVALCD,text,40,Parameter Value Code,,,Protocol,,,,,Yes,Result Qualifier,
TS,10,TSVCDREF,text,40,Name of the Reference Terminology,,,Protocol,,,,,Yes,Result Qualifier,
TS,11,TSVCDVER,text,40,Version of the Reference Terminology,,,Protocol,,,,,Yes,Result Qualifier,
,,,,,,,,,,,,,,,
TV,1,STUDYID,text,8,Study Identifier,1,,Protocol,,,,,Yes,Identifier,
TV,2,DOMAIN,text,2,Domain Abbreviation,,,Derived,,,SETDOMAIN,,Yes,Identifier,
TV,3,VISITNUM,float,8,Visit Number,2,,Protocol,,,,,Yes,Topic,
TV,4,VISIT,text,40,Visit Name,,,Protocol,,,,,Yes,Synonym Qualifier,
TV,5,VISITDY,integer,8,Planned Study Day of Visit,,,Protocol,,,,,Yes,Timing,
TV,6,ARMCD,text,20,Planned Arm Code,3,,Protocol,,,,,Yes,Record Qualifier,
TV,7,ARM,text,100,Description of Planned Arm,,,Protocol,,,,,Yes,Synonym Qualifier,
TV,8,TVSTRL,text,100,Visit Start Rule,,,Protocol,,,,,Yes,Rule,
TV,9,TVENRL,text,100,Visit End Rule,,,Protocol,,,,,Yes,Rule,
,,,,,,,,,,,,,,,
VS,1,STUDYID,text,8,Study Identifier,1,,Protocol,,,,,Yes,Identifier,
VS,2,DOMAIN,text,2,Domain Abbreviation,,,Derived,,,SETDOMAIN,,Yes,Identifier,
VS,3,USUBJID,text,18,Unique Subject Identifier,2,,Derived,,,SETUSUBJID,,Yes,Identifier,
VS,4,VSSEQ,integer,8,Sequence Number,3,,Assigned,,,VS.VSSEQ,,Yes,Identifier,
VS,5,VSGRPID,text,40,Sponsor-Defined Identifier,,,Assigned,,,,,No,Identifier,
VS,6,VSTESTCD,text,8,Vital Signs Test Short Name,4,,Derived,,,,VSTESTCD,Yes,Topic,
VS,7,VSTEST,text,40,Vital Signs Test Name,,,"CRF Page 12.1, 22.1, 30.1, 34.1, 41.1, 50.1, 58.1, 62.1, 74.1, 82.1, 86.1, 98.1, 106.1, 110.1, 122.1, 130.1, 134.1, 801.1, 809.1, 819.1, 565.1, ",,,,VSTEST,Yes,Synonym Qualifier,
VS,8,VSCAT,text,100,Category for Vital Signs,,,"CRF Page 12.1, 22.1, 30.1, 34.1, 41.1, 50.1, 58.1, 62.1, 74.1, 82.1, 86.1, 98.1, 106.1, 110.1, 122.1, 130.1, 134.1, 801.1, 809.1, 819.1, 565.1, ",,,,,No,Grouping Qualifier,
VS,9,VSSCAT,text,100,Subcategory for Vital Signs,,,"CRF Page 12.1, 22.1, 30.1, 34.1, 41.1, 50.1, 58.1, 62.1, 74.1, 82.1, 86.1, 98.1, 106.1, 110.1, 122.1, 130.1, 134.1, 801.1, 809.1, 819.1, 565.1, ",,,,,No,Grouping Qualifier,
VS,10,VSPOS,text,40,Vital Signs Position of Subject,,,"CRF Page 12.1, 22.1, 30.1, 34.1, 41.1, 50.1, 58.1, 62.1, 74.1, 82.1, 86.1, 98.1, 106.1, 110.1, 122.1, 130.1, 134.1, 801.1, 809.1, 819.1, 565.1, ",,,,POSITION,No,Record Qualifier,
VS,11,VSORRES,text,40,Result or Finding in Original Units,,,"CRF Page 12.1, 22.1, 30.1, 34.1, 41.1, 50.1, 58.1, 62.1, 74.1, 82.1, 86.1, 98.1, 106.1, 110.1, 122.1, 130.1, 134.1, 801.1, 809.1, 819.1, 565.1, ",,,,,Yes,Result Qualifier,
VS,12,VSORRESU,text,40,Original Units,,,"CRF Page 12.1, 22.1, 30.1, 34.1, 41.1, 50.1, 58.1, 62.1, 74.1, 82.1, 86.1, 98.1, 106.1, 110.1, 122.1, 130.1, 134.1, 801.1, 809.1, 819.1, 565.1, ",,,,VSRESU,Yes,Variable Qualifier,
VS,13,VSSTRESC,text,40,Character Result/Finding in Std Format,,,"CRF Page 12.1, 22.1, 30.1, 34.1, 41.1, 50.1, 58.1, 62.1, 74.1, 82.1, 86.1, 98.1, 106.1, 110.1, 122.1, 130.1, 134.1, 801.1, 809.1, 819.1, 565.1, ",,,,,Yes,Result Qualifier,
VS,14,VSSTRESN,float,8,Numeric Result/Finding in Standard Units,,,Assigned,,,,,Yes,Result Qualifier,
VS,15,VSSTRESU,text,40,Standard Units,,,"CRF Page 12.1, 22.1, 30.1, 34.1, 41.1, 50.1, 58.1, 62.1, 74.1, 82.1, 86.1, 98.1, 106.1, 110.1, 122.1, 130.1, 134.1, 801.1, 809.1, 819.1, 565.1, ",,,,VSRESU,Yes,Variable Qualifier,
VS,16,VSSTAT,text,8,Completion Status,,,"CRF Page 12.1, 22.1, 30.1, 34.1, 41.1, 50.1, 58.1, 62.1, 74.1, 82.1, 86.1, 98.1, 106.1, 110.1, 122.1, 130.1, 134.1, 801.1, 809.1, 819.1, 565.1, ",,,,ND,Yes,Record Qualifier,
VS,17,VSREASND,text,40,Reason Not Performed,,,"CRF Page 12.1, 22.1, 30.1, 34.1, 41.1, 50.1, 58.1, 62.1, 74.1, 82.1, 86.1, 98.1, 106.1, 110.1, 122.1, 130.1, 134.1, 801.1, 809.1, 819.1, 565.1, ",,,,,No,Record Qualifier,
VS,18,VSLOC,text,40,Location of Vital Signs Measurement,,,"CRF Page 12.1, 22.1, 30.1, 34.1, 41.1, 50.1, 58.1, 62.1, 74.1, 82.1, 86.1, 98.1, 106.1, 110.1, 122.1, 130.1, 134.1, 801.1, 809.1, 819.1, 565.1, ",,,,LOC,No,Record Qualifier,
VS,19,VSLAT,text,13,Laterality,,,"CRF Page 12.1, 22.1, 30.1, 34.1, 41.1, 50.1, 58.1, 62.1, 74.1, 82.1, 86.1, 98.1, 106.1, 110.1, 122.1, 130.1, 134.1, 801.1, 809.1, 819.1, 565.1, ",,,,LAT,No,Result Qualifier,
VS,20,VSBLFL,text,1,Baseline Flag,,,"CRF Page 12.1, 22.1, 30.1, 34.1, 41.1, 50.1, 58.1, 62.1, 74.1, 82.1, 86.1, 98.1, 106.1, 110.1, 122.1, 130.1, 134.1, 801.1, 809.1, 819.1, 565.1, ",,,,NY,Yes,Record Qualifier,
VS,21,VSDRVFL,text,1,Derived Flag,,,Derived,,,VS.VSDRVFL,NY,Yes,Record Qualifier,
VS,22,VISITNUM,float,8,Visit Number,5,,"CRF Page 12.1, 22.1, 30.1, 34.1, 41.1, 50.1, 58.1, 62.1, 74.1, 82.1, 86.1, 98.1, 106.1, 110.1, 122.1, 130.1, 134.1, 801.1, 809.1, 819.1, 565.1, ",,,,,Yes,Timing,
VS,23,VISIT,text,40,Visit Name,,,"CRF Page 12.1, 22.1, 30.1, 34.1, 41.1, 50.1, 58.1, 62.1, 74.1, 82.1, 86.1, 98.1, 106.1, 110.1, 122.1, 130.1, 134.1, 801.1, 809.1, 819.1, 565.1, ",,,,,Yes,Timing,
VS,24,VISITDY,integer,8,Planned Study Day of Visit,,,Derived,,,VS.VISITDY,,No,Timing,
VS,25,VSDTC,date,16,Date/Time of Measurements,,,"CRF Page 12.1, 22.1, 30.1, 34.1, 41.1, 50.1, 58.1, 62.1, 74.1, 82.1, 86.1, 98.1, 106.1, 110.1, 122.1, 130.1, 134.1, 801.1, 809.1, 819.1, 565.1, ",,,,ISO 8601,Yes,Timing,
VS,26,VSDY,integer,8,Study Day of Vital Signs,,,"CRF Page 12.1, 22.1, 30.1, 34.1, 41.1, 50.1, 58.1, 62.1, 74.1, 82.1, 86.1, 98.1, 106.1, 110.1, 122.1, 130.1, 134.1, 801.1, 809.1, 819.1, 565.1, ",,,VS.VSDY,,Yes,Timing,
VS,27,VSTPT,text,40,Planned Time Point Name,,,"CRF Page 12.1, 22.1, 30.1, 34.1, 41.1, 50.1, 58.1, 62.1, 74.1, 82.1, 86.1, 98.1, 106.1, 110.1, 122.1, 130.1, 134.1, 801.1, 809.1, 819.1, 565.1, ",,,,,Yes,Timing,
VS,28,VSTPTNUM,float,8,Planned Time Point Number,6,,"CRF Page 12.1, 22.1, 30.1, 34.1, 41.1, 50.1, 58.1, 62.1, 74.1, 82.1, 86.1, 98.1, 106.1, 110.1, 122.1, 130.1, 134.1, 801.1, 809.1, 819.1, 565.1, ",,,,ISO 8601,Yes,Timing,
VS,29,VSELTM,date,16,Planned Elapsed Time from Time Point Ref,,,"CRF Page 12.1, 22.1, 30.1, 34.1, 41.1, 50.1, 58.1, 62.1, 74.1, 82.1, 86.1, 98.1, 106.1, 110.1, 122.1, 130.1, 134.1, 801.1, 809.1, 819.1, 565.1, ",,,,,No,Timing,
VS,30,VSTPTREF,text,40,Time Point Reference,7,,"CRF Page 12.1, 22.1, 30.1, 34.1, 41.1, 50.1, 58.1, 62.1, 74.1, 82.1, 86.1, 98.1, 106.1, 110.1, 122.1, 130.1, 134.1, 801.1, 809.1, 819.1, 565.1, ",,,,ISO 8601,No,Timing,
VS,31,VSRFTDTC,date,16,Date/Time of Reference Time Point,,,"CRF Page 12.1, 22.1, 30.1, 34.1, 41.1, 50.1, 58.1, 62.1, 74.1, 82.1, 86.1, 98.1, 106.1, 110.1, 122.1, 130.1, 134.1, 801.1, 809.1, 819.1, 565.1, ",,,,,No,Timing,
,,,,,,,,,,,,,,,
DS,1,STUDYID,text,8,Study Identifier,1,,Protocol,,,,,Yes,Identifier,
DS,2,DOMAIN,text,2,Domain Abbreviation,,,Derived,,,SETDOMAIN,,Yes,Identifier,
DS,3,USUBJID,text,18,Unique Subject Identifier,2,,Derived,,,SETUSUBJID,,Yes,Identifier,
DS,4,DSSEQ,integer,8,Sequence Number,3,,Assigned,,,DS.DSSEQ,,Yes,Identifier,
DS,5,DSGRPID,text,10,Group ID,,,Assigned,,,,,No,Identifier,
DS,6,DSREFID,text,10,Reference ID,,,Assigned,,,,,No,Identifier,
DS,7,DSSPID,text,9,Sponsor-Defined Identifier,,,"CRF Page 1.1, 3.1, 501.1, 999.1, 808.1, 818.1, 500.1",,,,,No,Identifier,
DS,8,DSTERM,text,40,Reported Term for the Disposition Event,4,,"CRF Page 1.1, 3.1, 501.1, 999.1, 808.1, 818.1, 500.1",,,,,Yes,Topic,
DS,9,DSDECOD,text,40,Standardized Disposition Term,5,,Derived,,,DS.DSDECOD,NCOMPLT,Yes,Synonym Qualifier,
DS,10,DSCAT,text,100,Category for Disposition Event,,,"CRF Page 1.1, 3.1, 501.1, 999.1, 808.1, 818.1, 500.1",,,,DSCAT,Yes,Grouping Qualifier,
DS,11,DSSCAT,text,100,Subcategory for Disposition Event,,,"CRF Page 1.1, 3.1, 501.1, 999.1, 808.1, 818.1, 500.1",,,,,Yes,Grouping Qualifier,
DS,12,EPOCH,text,40,Epoch,,,"CRF Page 1.1, 3.1, 501.1, 999.1, 808.1, 818.1, 500.1",,,,EPOCH,Yes,Timing,
DS,13,DSDTC,date,16,Date/Time of Collection,,,"CRF Page 1.1, 3.1, 501.1, 999.1, 808.1, 818.1, 500.1",,,,ISO 8601,No,Timing,
DS,14,DSSTDTC,date,16,Start Date/Time of Disposition Event,,,"CRF Page 1.1, 3.1, 501.1, 999.1, 808.1, 818.1, 500.1",,,,ISO 8601,Yes,Timing,
DS,15,DSSTDY,integer,8,Study Day of Start of Disposition Event,,,"CRF Page 1.1, 3.1, 501.1, 999.1, 808.1, 818.1, 500.1",,,DS.DSSTDY,,No,Timing,
,,,,,,,,,,,,,,,
EX,1,STUDYID,text,8,Study Identifier,1,,Protocol,,,,,Yes,Identifier,
EX,2,DOMAIN,text,2,Domain Abbreviation,,,Derived,,,SETDOMAIN,,Yes,Identifier,
EX,3,USUBJID,text,18,Unique Subject Identifier,2,,Derived,,,SETUSUBJID,,Yes,Identifier,
EX,4,EXSEQ,integer,8,Sequence Number,3,,Assigned,,,EX.EXSEQ,,Yes,Identifier,
EX,5,EXGRPID,text,10,Group ID,,,Assigned,,,,,No,Identifier,
EX,6,EXREFID,text,10,Reference ID,,,Assigned,,,,,No,Identifier,
EX,7,EXSPID,text,20,Sponsor-Defined Identifier,,,Assigned,,,,,No,Identifier,
EX,8,EXLNKID,text,40,Link ID,,,Assigned,,,,,No,Identifier,
EX,9,EXLNKGRP,text,40,Link Group ID,,,Assigned,,,,,No,Identifier,
EX,10,EXTRT,text,40,Name of Treatment,4,,###############################################################################################################################################################################################################################################################,,,,,Yes,Topic,
EX,11,EXCAT,text,100,Category of Treatment,,,Assigned,,,,,No,Grouping Qualifier,
EX,12,EXSCAT,text,100,Subcategory of Treatment,,,Assigned,,,,,No,Grouping Qualifier,
EX,13,EXDOSE,float,8,Dose,,,###############################################################################################################################################################################################################################################################,,,,,Yes,Record Qualifier,
EX,14,EXDOSTXT,text,40,Dose Description,,,###############################################################################################################################################################################################################################################################,,,,,No,Record Qualifier,
EX,15,EXDOSU,text,40,Dose Units,,,###############################################################################################################################################################################################################################################################,,,,UNIT,Yes,Variable Qualifier,
EX,16,EXDOSFRM,text,40,Dose Form,,,###############################################################################################################################################################################################################################################################,,,,FRM,Yes,Variable Qualifier,
EX,17,EXDOSFRQ,text,40,Dosing Frequency per Interval,,,###############################################################################################################################################################################################################################################################,,,,FREQ,No,Variable Qualifier,
EX,18,EXDOSRGM,text,40,Intended Dose Regimen,,,###############################################################################################################################################################################################################################################################,,,,,No,Variable Qualifier,
EX,19,EXROUTE,text,40,Route of Administration,,,###############################################################################################################################################################################################################################################################,,,,ROUTE,No,Variable Qualifier,
EX,20,EXLOT,text,40,Lot Number,,,###############################################################################################################################################################################################################################################################,,,,,No,Record Qualifier,
EX,21,EXLOC,text,40,Location of Dose Administration,,,###############################################################################################################################################################################################################################################################,,,,LOC,No,Record Qualifier,
EX,22,EXLAT,text,13,Laterality,,,###############################################################################################################################################################################################################################################################,,,,LAT,No,Variable Qualifier,
EX,23,EXDIR,text,40,Directionality,,,###############################################################################################################################################################################################################################################################,,,,DIR,No,Variable Qualifier,
EX,24,EXFAST,text,1,Fasting Status,,,###############################################################################################################################################################################################################################################################,,,,NY,No,Record Qualifier,
EX,25,EXADJ,text,40,Reason for Dose Adjustment,,,###############################################################################################################################################################################################################################################################,,,,,No,Record Qualifier,
EX,26,EPOCH,text,40,Epoch,,,###############################################################################################################################################################################################################################################################,,,,EPOCH,No,Timing,
EX,27,EXSTDTC,date,16,Start Date/Time of Treatment,5,,###############################################################################################################################################################################################################################################################,,,,ISO 8601,Yes,Timing,
EX,28,EXENDTC,date,16,End Date/Time of Treatment,,,###############################################################################################################################################################################################################################################################,,,,ISO 8601,Yes,Timing,
EX,29,EXSTDY,integer,8,Study Day of Start of Treatment,,,Derived,,,EX.EXSTDY,,No,Timing,
EX,30,EXENDY,integer,8,Study Day of End of Treatment,,,Derived,,,EX.ENDY,,No,Timing,
EX,31,EXDUR,date,16,Duration of Treatment,,,###############################################################################################################################################################################################################################################################,,,,ISO 8601,Yes,Timing,
EX,32,EXTPT,text,40,Planned Time Point Name,,,###############################################################################################################################################################################################################################################################,,,,,Yes,Timing,
EX,33,EXTPTNUM,float,8,Planned Time Point Number,,,###############################################################################################################################################################################################################################################################,,,,,Yes,Timing,
EX,34,EXELTM,text,40,Planned Elapsed Time from Time Point Ref,,,###############################################################################################################################################################################################################################################################,,,,ISO 8601,No,Timing,
EX,35,EXTPTREF,text,40,Time Point Reference,,,###############################################################################################################################################################################################################################################################,,,,,No,Timing,
EX,36,EXRFTDTC,date,16,Date/Time of Reference Time Point,,,###############################################################################################################################################################################################################################################################,,,,ISO 8601,No,Timing,
,,,,,,,,,,,,,,,
IE,1,STUDYID,text,8,Study Identifier,1,,Protocol,,,,,Yes,Identifier,
IE,2,DOMAIN,text,2,Domain Abbreviation,,,Derived,,,SETDOMAIN,,Yes,Identifier,
IE,3,USUBJID,text,18,Unique Subject Identifier,2,,Derived,,,SETUSUBJID,,Yes,Identifier,
IE,4,IESEQ,integer,8,Sequence Number,,,Assigned,,,IE.IESEQ,,Yes,Identifier,
IE,5,IESPID,text,9,Sponsor-Defined Identifier,,,CRF Page 500.1,,,,,No,Identifier,
IE,6,IETESTCD,text,8,Inclusion/Exclusion Criterion Short Name,3,,Assigned,,,,,Yes,Topic,
IE,7,IETEST,text,200,Inclusion/Exclusion Criterion,,,Protocol,,,,,Yes,Synonym Qualifier,
IE,8,IECAT,text,9,Inclusion/Exclusion Category,,,Assigned,,,,IECAT,Yes,Grouping Qualifier,
IE,9,IESCAT,text,40,Inclusion/Exclusion Subcategory,,,Assigned,,,,,No,Grouping Qualifier,
IE,10,IEORRES,text,40,I/E Criterion Original Result,,,CRF Page 500.1,,,,NY,Yes,Result Qualifier,
IE,11,IESTRESC,text,40,I/E Criterion Result in Std Format,,,Derived,,,IE.IESTRESC,NY,Yes,Result Qualifier,
IE,12,VISITNUM,float,8,Visit Number,,,CRF Page 500.1,,,,,Yes,Timing,
IE,13,VISIT,text,40,Visit Name,,,CRF Page 500.1,,,,,Yes,Timing,
IE,14,VISITDY,integer,8,Planned Study Day of Visit,,,Derived,,,IE.VISITDY,,No,Timing,
IE,15,IEDTC,date,16,Date/Time of Collection,,,CRF Page 500.1,,,,ISO 8601,No,Timing,
IE,16,IEDY,integer,8,Study Day of Collection,,,Derived,,,IE.IEDY,,No,Timing,
,,,,,,,,,,,,,,,
EG,1,STUDYID,text,8,Study Identifier,1,,Protocol,,,,,Yes,Identifier,
EG,2,DOMAIN,text,2,Domain Abbreviation,,,Derived,,,SETDOMAIN,,Yes,Identifier,
EG,3,USUBJID,text,18,Unique Subject Identifier,2,,Derived,,,SETUSUBJID,,Yes,Identifier,
EG,4,EGSEQ,integer,8,Sequence Number,,,Assigned,,,EG.EGSEQ,,Yes,Identifier,
EG,5,EGGRPID,text,10,Group ID,,,Assigned,,,,,No,Identifier,
EG,6,EGREFID,text,10,Reference ID,,,Assigned,,,,,No,Identifier,
EG,7,EGSPID,text,9,Sponsor-Defined Identifier,,,"CRF PAGE 13.1, 564.1",,,,,No,Identifier,
EG,8,EGTESTCD,text,8,ECG Test or Examination Short Name,3,,Derived,,,EG.EGTESTCD,EGTESTCD,Yes,Topic,
EG,9,EGTEST,text,40,ECG Test or Examination Name,,,Assigned,,,,EGTEST,Yes,Synonym Qualifier,
EG,10,EGCAT,text,40,Category for ECG,,,"CRF PAGE 13.1, 564.1",,,,,No,Grouping Qualifier,
EG,11,EGSCAT,text,40,Subcategory for ECG,,,"CRF PAGE 13.1, 564.1",,,,,No,Grouping Qualifier,
EG,12,EGPOS,text,21,ECG Position of Subject,,,"CRF PAGE 13.1, 564.1",,,,POSITION,No,Record Qualifier,
EG,13,EGORRES,text,40,Result or Finding in Original Units,,,"CRF PAGE 13.1, 564.1",,,,,Yes,Result Qualifier,
EG,14,EGORRESU,text,40,Original Units,,,"CRF PAGE 13.1, 564.1",,,,UNIT,No,Variable Qualifier,
EG,15,EGSTRESC,text,40,Character Result/Finding in Std Format,,,Derived,,,EG.EGSTRESC,EGSTRESC,Yes,Result Qualifier,
EG,16,EGSTRESN,text,40,Numeric Result/Finding in Standard Units,,,Derived,,,EG.EGSTRESN,,No,Result Qualifier,
EG,17,EGSTRESU,text,40,Standard Units,,,Derived,,,,UNIT,No,Variable Qualifier,
EG,18,EGSTAT,text,8,Completion Status,,,"CRF PAGE 13.1, 564.1",,,,ND,No,Record Qualifier,
EG,19,EGREASND,text,40,Reason ECG Not Performed,,,"CRF PAGE 13.1, 564.1",,,,,No,Record Qualifier,
EG,20,EGFXN,text,40,ECG External File Path,,,"CRF PAGE 13.1, 564.1",,,,,No,Record Qualifier,
EG,21,EGNAM,text,40,Vendor Name,,,"CRF PAGE 13.1, 564.1",,,,,No,Record Qualifier,
EG,22,EGLEAD,text,40,Lead Location Used for Measurement,,,"CRF PAGE 13.1, 564.1",,,,LOC,No,Record Qualifier,
EG,23,EGMETHOD,text,40,Method of ECG Test,,,"CRF PAGE 13.1, 564.1",,,,EGMETHOD,No,Record Qualifier,
EG,24,EGBLFL,text,1,Baseline Flag,,,Derived,,,EG.EGBLFL,NY,Yes,Record Qualifier,
EG,25,EGDRVFL,text,1,Derived Flag,,,Derived,,,EG.EGDRVFL,NY,No,Record Qualifier,
EG,26,EGEVAL,text,40,Evaluator,,,"CRF PAGE 13.1, 564.1",,,,,No,Record Qualifier,
EG,27,VISITNUM,float,8,Visit Number,4,,"CRF PAGE 13.1, 564.1",,,,,Yes,Timing,
EG,28,VISIT,text,40,Visit Name,,,"CRF PAGE 13.1, 564.1",,,,,Yes,Timing,
EG,29,VISITDY,integer,8,Planned Study Day of Visit,,,Derived,,,EG.VISIT,,No,Timing,
EG,30,EGDTC,date,16,Date/Time of ECG,,,"CRF PAGE 13.1, 564.1",,,,,Yes,Timing,
EG,31,EGDY,integer,8,Study Day of ECG,,,Derived,,,EG.EGDY,,No,Timing,
EG,32,EGTPT,text,40,Planned Time Point Name,,,"CRF PAGE 13.1, 564.1",,,,,No,Timing,
EG,33,EGTPTNUM,float,8,Planned Time Point Number,6,,"CRF PAGE 13.1, 564.1",,,,,No,Timing,
EG,34,EGELTM,date,16,Planned Elapsed Time from Time Point Ref,,,"CRF PAGE 13.1, 564.1",,,,ISO 8601,No,Timing,
EG,35,EGTPTREF,text,40,Time Point Reference,5,,"CRF PAGE 13.1, 564.1",,,,,No,Timing,
EG,36,EGRFTDTC,date,16,Date/Time of Reference Time Point,,,Derived,,,,,No,Timing,
,,,,,,,,,,,,,,,
LB,1,STUDYID,text,8,Study Identifier,1,,Protocol,,,,,Yes,Identifier,
LB,2,DOMAIN,text,2,Domain Abbreviation,,,Derived,,,SETDOMAIN,,Yes,Identifier,
LB,3,USUBJID,text,18,Unique Subject Identifier,2,,Derived,,,SETUSUBJID,,Yes,Identifier,
LB,4,LBSEQ,integer,8,Sequence Number,,,Assigned,,,LB.LBSEQ,,Yes,Identifier,
LB,5,LBGRPID,text,40,Group ID,,,###############################################################################################################################################################################################################################################################,,,,,No,Identifier,
LB,6,LBREFID,text,40,Specimen ID,,,###############################################################################################################################################################################################################################################################,,,,,No,Identifier,
LB,7,LBSPID,text,40,Sponsor-Defined Identifier,,,###############################################################################################################################################################################################################################################################,,,,,No,Identifier,
LB,8,LBTESTCD,text,8,Lab Test or Examination Short Name,3,,Derived,,,LB.LBTESTCD,LBTESTCD,Yes,Topic,
LB,9,LBTEST,text,40,Lab Test or Examination Name,,,###############################################################################################################################################################################################################################################################,,,,LBTEST,Yes,Synonym Qualifier,
LB,10,LBCAT,text,100,Category for Lab Test,,,###############################################################################################################################################################################################################################################################,,,,,Yes,Grouping Qualifier,
LB,11,LBSCAT,text,100,Subcategory for Lab Test,,,###############################################################################################################################################################################################################################################################,,,,,No,Grouping Qualifier,
LB,12,LBORRES,text,40,Result or Finding in Original Units,,,###############################################################################################################################################################################################################################################################,,,,,Yes,Result Qualifier,
LB,13,LBORRESU,text,40,Original Units,,,###############################################################################################################################################################################################################################################################,,,,UNIT,Yes,Variable Qualifier,
LB,14,LBORNRLO,text,40,Reference Range Lower Limit in Orig Unit,,,###############################################################################################################################################################################################################################################################,,,,,Yes,Variable Qualifier,
LB,15,LBORNRHI,text,40,Reference Range Upper Limit in Orig Unit,,,###############################################################################################################################################################################################################################################################,,,,,Yes,Variable Qualifier,
LB,16,LBSTRESC,text,40,Character Result/Finding in Std Format,,,###############################################################################################################################################################################################################################################################,,,,,Yes,Result Qualifier,
LB,17,LBSTRESN,float,8,Numeric Result/Finding in Standard Units,,,###############################################################################################################################################################################################################################################################,,,,,Yes,Result Qualifier,
LB,18,LBSTRESU,text,40,Standard Units,,,###############################################################################################################################################################################################################################################################,,,,UNIT,Yes,Variable Qualifier,
LB,19,LBSTNRLO,integer,8,Reference Range Lower Limit-Std Units,,,###############################################################################################################################################################################################################################################################,,,,,Yes,Variable Qualifier,
LB,20,LBSTNRHI,integer,8,Reference Range Upper Limit-Std Units,,,###############################################################################################################################################################################################################################################################,,,,,Yes,Variable Qualifier,
LB,21,LBSTNRC,text,40,Reference Range for Char Rslt-Std Units,,,###############################################################################################################################################################################################################################################################,,,,,No,Variable Qualifier,
LB,22,LBNRIND,text,8,Reference Range Indicator,,,Derived,,,LB.LBNRIND,NRIND,Yes,Variable Qualifier,
LB,23,LBSTAT,text,8,Completion Status,,,###############################################################################################################################################################################################################################################################,,,,ND,No,Record Qualifier,
LB,24,LBREASND,text,40,Reason Test Not Done,,,###############################################################################################################################################################################################################################################################,,,,,No,Record Qualifier,
LB,25,LBNAM,text,40,Vendor Name,,,###############################################################################################################################################################################################################################################################,,,,,No,Record Qualifier,
LB,26,LBLOINC,text,40,LOINC Code,,,###############################################################################################################################################################################################################################################################,,,,,No,Synonym Qualifier,
LB,27,LBSPEC,text,40,Specimen Type,,,###############################################################################################################################################################################################################################################################,,,,SPECTYPE,No,Record Qualifier,
LB,28,LBSPCCND,text,40,Specimen Condition,,,###############################################################################################################################################################################################################################################################,,,,SPECCOND,No,Record Qualifier,
LB,29,LBMETHOD,text,40,Method of Test or Examination,,,###############################################################################################################################################################################################################################################################,,,,METHOD,No,Record Qualifier,
LB,30,LBBLFL,text,1,Baseline Flag,,,Derived,,,LB.LBBLFL,NY,Yes,Record Qualifier,
LB,31,LBFAST,text,1,Fasting Status,,,###############################################################################################################################################################################################################################################################,,,,NY,No,Record Qualifier,
LB,32,LBDRVFL,text,1,Derived Flag,,,###############################################################################################################################################################################################################################################################,,,,NY,No,Record Qualifier,
LB,33,LBTOX,text,40,Toxicity,,,Derived,,,LB.LBTOX,,Yes,Variable Qualifier,
LB,34,LBTOXGR,text,40,Standard Toxicity Grade,,,Derived,,,LB.LBTOXGR,,Yes,Variable Qualifier,
LB,35,VISITNUM,float,8,Visit Number,4,,###############################################################################################################################################################################################################################################################,,,,,Yes,Timing,
LB,36,VISIT,text,40,Visit Name,,,###############################################################################################################################################################################################################################################################,,,,,No,Timing,
LB,37,VISITDY,integer,8,Planned Study Day of Visit,,,###############################################################################################################################################################################################################################################################,,,LB.VISITDY,,No,Timing,
LB,38,LBDTC,date,16,Date/Time of Specimen Collection,,,Derived,,,LB.LBDTC,ISO 8601,Yes,Timing,
LB,39,LBENDTC,date,16,End Date/Time of Specimen Collection,,,Derived,,,,ISO 8601,No,Timing,
LB,40,LBDY,integer,8,Study Day of Specimen Collection,,,###############################################################################################################################################################################################################################################################,,,LB.LBDY,,Yes,Timing,
LB,41,LBTPT,text,40,Planned Time Point Name,,,###############################################################################################################################################################################################################################################################,,,,,Yes,Timing,
LB,42,LBTPTNUM,float,8,Planned Time Point Number,6,1,###############################################################################################################################################################################################################################################################,,,,,Yes,Timing,
LB,43,LBELTM,date,16,Planned Elapsed Time from Time Point Ref,,,###############################################################################################################################################################################################################################################################,,,,ISO 8601,No,Timing,
LB,44,LBTPTREF,text,40,Time Point Reference,5,,###############################################################################################################################################################################################################################################################,,,,,No,Timing,
LB,45,LBRFTDTC,date,16,Date/Time of Reference Time Point,,,###############################################################################################################################################################################################################################################################,,,,ISO 8601,No,Timing,
,,,,,,,,,,,,,,,
MH,1,STUDYID,text,8,Study Identifier,1,,Protocol,,,,,Yes,Identifier,
MH,2,DOMAIN,text,2,Domain Abbreviation,,,Derived,,,SETDOMAIN,,Yes,Identifier,
MH,3,USUBJID,text,18,Unique Subject Identifier,2,,Derived,,,SETUSUBJID,,Yes,Identifier,
MH,4,MHSEQ,integer,8,Sequence Number,3,,Assigned,,,MH.MHSEQ,,Yes,Identifier,
MH,5,MHGRPID,text,40,Group ID,,,"CRF Page 7.1, 7.2, 7.3, 7.4, 8.1, 8.2, 8.3, 8.4 ",,,,,No,Identifier,
MH,6,MHREFID,text,40,Specimen ID,,,"CRF Page 7.1, 7.2, 7.3, 7.4, 8.1, 8.2, 8.3, 8.5",,,,,No,Identifier,
MH,7,MHSPID,text,40,Sponsor-Defined Identifier,,,"CRF Page 7.1, 7.2, 7.3, 7.4, 8.1, 8.2, 8.3, 8.6",,,,,Yes,Identifier,
MH,8,MHTERM,text,200,Reported Term for the Medical History,,,"CRF Page 7.1, 7.2, 7.3, 7.4, 8.1, 8.2, 8.3, 8.7",,,,,Yes,Topic,
MH,9,MHMODIFY,text,40,Modified Reported Term,,,"CRF Page 7.1, 7.2, 7.3, 7.4, 8.1, 8.2, 8.3, 8.8",,,,,No,Synonym Qualifier,
MH,10,MHDECOD,text,200,Dictionary-Derived Term,4,,"CRF Page 7.1, 7.2, 7.3, 7.4, 8.1, 8.2, 8.3, 8.9",,,,,Yes,Synonym Qualifier,
MH,11,MHCAT,text,100,Category for Medical History,,,Derived,,,,,Yes,Grouping Qualifier,
MH,12,MHSCAT,text,100,Subcategory for Medical History,,,Derived,,,,,No,Grouping Qualifier,
MH,13,MHPRESP,text,1,Medical History Event Pre-Specified,,,"CRF Page 7.1, 7.2, 7.3, 7.4, 8.1, 8.2, 8.3, 8.9",,,,NY,Yes,Variable Qualifier,
MH,14,MHOCCUR,text,1,Medical History Occurrence,,,"CRF Page 7.1, 7.2, 7.3, 7.4, 8.1, 8.2, 8.3, 8.10",,,,NY,Yes,Record Qualifier,
MH,15,MHSTAT,text,8,Completion Status,,,"CRF Page 7.1, 7.2, 7.3, 7.4, 8.1, 8.2, 8.3, 8.11",,,,ND,No,Record Qualifier,
MH,16,MHREASND,text,40,Reason Medical History Not Done or Not Occurred,,,"CRF Page 7.1, 7.2, 7.3, 7.4, 8.1, 8.2, 8.3, 8.12",,,,,No,Record Qualifier,
MH,17,MHBODSYS,text,200,Body System or Organ Class,,,Derived,,,,,Yes,Record Qualifier,
MH,18,MHDTC,date,16,Date/Time of History Collection,,,"CRF Page 7.1, 7.2, 7.3, 7.4, 8.1, 8.2, 8.3, 8.12",,,,ISO 8601,No,Timing,
MH,19,MHSTDTC,date,16,Start Date/Time of Medical History Event,,,"CRF Page 7.1, 7.2, 7.3, 7.4, 8.1, 8.2, 8.3, 8.13",,,,ISO 8602,Yes,Timing,
MH,20,MHENDTC,date,16,End Date/Time of Medical History Event,,,"CRF Page 7.1, 7.2, 7.3, 7.4, 8.1, 8.2, 8.3, 8.14",,,,ISO 8603,No,Timing,
MH,21,MHDY,integer,8,Study Day of History Collection,,,"CRF Page 7.1, 7.2, 7.3, 7.4, 8.1, 8.2, 8.3, 8.15",,,,,No,Timing,
MH,22,MHENRF,text,12,End Relative to Reference Period,,,"CRF Page 7.1, 7.2, 7.3, 7.4, 8.1, 8.2, 8.3, 8.16",,,,STENRF,No,Timing,
MH,23,MHENRTPT,text,12,End Relative to Reference Time Point,,,"CRF Page 7.1, 7.2, 7.3, 7.4, 8.1, 8.2, 8.3, 8.17",,,,STENRF,Yes,Timing,
MH,24,MHENTPT,text,40,End Reference Time Point,,,"CRF Page 7.1, 7.2, 7.3, 7.4, 8.1, 8.2, 8.3, 8.18",,,,,Yes,Timing,
,,,,,,,,,,,,,,,
PC,1,STUDYID,text,8,Study Identifier,1,,Protocol,,,,,Yes,Identifier,
PC,2,DOMAIN,text,2,Domain Abbreviation,,,Derived,,,SETDOMAIN,,Yes,Identifier,
PC,3,USUBJID,text,18,Unique Subject Identifier,2,,Derived,,,SETUSUBJID,,Yes,Identifier,
PC,4,PCSEQ,integer,8,Sequence Number,,,Assigned,,,PC.PCSEQ,,Yes,Identifier,
PC,5,PCGRPID,text,40,Group ID,,,"CRF Page 970.01.1, 1001.01.1, 970.02.1, 1001.02.1, 971.01.1, 1001.03.1, 971.02.1, 1001.04.1, 27.1, 972.1, 1002.01.1, 1002.02.1, 973.1, 1003.01.1, 1003.02.1, 1004.01.1, 1004.02.1, 974.1, 1005.01.1, 1005.02.1, 975.01.1, 975.02.1, 976.01.1, 976.02.1, 976.1, 976.2, 977.1, 977.2",,,,,No,Identifier,
PC,6,PCREFID,text,40,Specimen ID,,,"CRF Page 970.01.1, 1001.01.1, 970.02.1, 1001.02.1, 971.01.1, 1001.03.1, 971.02.1, 1001.04.1, 27.1, 972.1, 1002.01.1, 1002.02.1, 973.1, 1003.01.1, 1003.02.1, 1004.01.1, 1004.02.1, 974.1, 1005.01.1, 1005.02.1, 975.01.1, 975.02.1, 976.01.1, 976.02.1, 976.1, 976.2, 977.1, 977.2",,,,,Yes,Identifier,
PC,7,PCSPID,text,40,Sponsor-Defined Identifier,,,"CRF Page 970.01.1, 1001.01.1, 970.02.1, 1001.02.1, 971.01.1, 1001.03.1, 971.02.1, 1001.04.1, 27.1, 972.1, 1002.01.1, 1002.02.1, 973.1, 1003.01.1, 1003.02.1, 1004.01.1, 1004.02.1, 974.1, 1005.01.1, 1005.02.1, 975.01.1, 975.02.1, 976.01.1, 976.02.1, 976.1, 976.2, 977.1, 977.2",,,,,No,Identifier,
PC,8,PCTESTCD,text,40,Pharmacokinetic Test Short Name,3,,Derived,,,PC.PCTESTCD,,Yes,Topic,
PC,9,PCTEST,text,40,Pharmacokinetic Test Name,,,"CRF Page 970.01.1, 1001.01.1, 970.02.1, 1001.02.1, 971.01.1, 1001.03.1, 971.02.1, 1001.04.1, 27.1, 972.1, 1002.01.1, 1002.02.1, 973.1, 1003.01.1, 1003.02.1, 1004.01.1, 1004.02.1, 974.1, 1005.01.1, 1005.02.1, 975.01.1, 975.02.1, 976.01.1, 976.02.1, 976.1, 976.2, 977.1, 977.2",,,,,Yes,Synonym Qualifier,
PC,10,PCCAT,text,80,Test Category,,,"CRF Page 970.01.1, 1001.01.1, 970.02.1, 1001.02.1, 971.01.1, 1001.03.1, 971.02.1, 1001.04.1, 27.1, 972.1, 1002.01.1, 1002.02.1, 973.1, 1003.01.1, 1003.02.1, 1004.01.1, 1004.02.1, 974.1, 1005.01.1, 1005.02.1, 975.01.1, 975.02.1, 976.01.1, 976.02.1, 976.1, 976.2, 977.1, 977.2",,,,,Yes,Grouping Qualifier,
PC,11,PCSCAT,text,80,Test Subcategory,,,"CRF Page 970.01.1, 1001.01.1, 970.02.1, 1001.02.1, 971.01.1, 1001.03.1, 971.02.1, 1001.04.1, 27.1, 972.1, 1002.01.1, 1002.02.1, 973.1, 1003.01.1, 1003.02.1, 1004.01.1, 1004.02.1, 974.1, 1005.01.1, 1005.02.1, 975.01.1, 975.02.1, 976.01.1, 976.02.1, 976.1, 976.2, 977.1, 977.2",,,,,No,Grouping Qualifier,
PC,12,PCORRES,text,40,Result or Finding in Original Units,,,"CRF Page 970.01.1, 1001.01.1, 970.02.1, 1001.02.1, 971.01.1, 1001.03.1, 971.02.1, 1001.04.1, 27.1, 972.1, 1002.01.1, 1002.02.1, 973.1, 1003.01.1, 1003.02.1, 1004.01.1, 1004.02.1, 974.1, 1005.01.1, 1005.02.1, 975.01.1, 975.02.1, 976.01.1, 976.02.1, 976.1, 976.2, 977.1, 977.2",,,,,Yes,Result Qualifier,
PC,13,PCORRESU,text,40,Original Units,,,"CRF Page 970.01.1, 1001.01.1, 970.02.1, 1001.02.1, 971.01.1, 1001.03.1, 971.02.1, 1001.04.1, 27.1, 972.1, 1002.01.1, 1002.02.1, 973.1, 1003.01.1, 1003.02.1, 1004.01.1, 1004.02.1, 974.1, 1005.01.1, 1005.02.1, 975.01.1, 975.02.1, 976.01.1, 976.02.1, 976.1, 976.2, 977.1, 977.2",,,,UNIT,Yes,Variable Qualifier,
PC,14,PCSTRESC,text,40,Character Result/Finding in Standard Format,,,Derived,,,PC.PCSTRESC,,Yes,Result Qualifier,
PC,15,PCSTRESN,float,8,Numeric Result/Finding in Standard Units,,,Derived,,,PC.PCSTRESN,,Yes,Result Qualifier,
PC,16,PCSTRESU,text,40,Standard Units,,,Assigned,,,,UNIT,Yes,Variable Qualifier,
PC,17,PCSTAT,text,40,Completion Status,,,"CRF Page 970.01.1, 1001.01.1, 970.02.1, 1001.02.1, 971.01.1, 1001.03.1, 971.02.1, 1001.04.1, 27.1, 972.1, 1002.01.1, 1002.02.1, 973.1, 1003.01.1, 1003.02.1, 1004.01.1, 1004.02.1, 974.1, 1005.01.1, 1005.02.1, 975.01.1, 975.02.1, 976.01.1, 976.02.1, 976.1, 976.2, 977.1, 977.2",,,,ND,Yes,Record Qualifier,
PC,18,PCREASND,text,40,Reason Test Not Done,,,"CRF Page 970.01.1, 1001.01.1, 970.02.1, 1001.02.1, 971.01.1, 1001.03.1, 971.02.1, 1001.04.1, 27.1, 972.1, 1002.01.1, 1002.02.1, 973.1, 1003.01.1, 1003.02.1, 1004.01.1, 1004.02.1, 974.1, 1005.01.1, 1005.02.1, 975.01.1, 975.02.1, 976.01.1, 976.02.1, 976.1, 976.2, 977.1, 977.2",,,,,No,Record Qualifier,
PC,19,PCNAM,text,40,Vendor Name,,,"CRF Page 970.01.1, 1001.01.1, 970.02.1, 1001.02.1, 971.01.1, 1001.03.1, 971.02.1, 1001.04.1, 27.1, 972.1, 1002.01.1, 1002.02.1, 973.1, 1003.01.1, 1003.02.1, 1004.01.1, 1004.02.1, 974.1, 1005.01.1, 1005.02.1, 975.01.1, 975.02.1, 976.01.1, 976.02.1, 976.1, 976.2, 977.1, 977.2",,,,,Yes,Record Qualifier,
PC,20,PCSPEC,text,40,Specimen Material Type,,,"CRF Page 970.01.1, 1001.01.1, 970.02.1, 1001.02.1, 971.01.1, 1001.03.1, 971.02.1, 1001.04.1, 27.1, 972.1, 1002.01.1, 1002.02.1, 973.1, 1003.01.1, 1003.02.1, 1004.01.1, 1004.02.1, 974.1, 1005.01.1, 1005.02.1, 975.01.1, 975.02.1, 976.01.1, 976.02.1, 976.1, 976.2, 977.1, 977.2",,,,SPECTYPE,Yes,Record Qualifier,
PC,21,PCSPCCND,text,40,Specimen Condition,,,"CRF Page 970.01.1, 1001.01.1, 970.02.1, 1001.02.1, 971.01.1, 1001.03.1, 971.02.1, 1001.04.1, 27.1, 972.1, 1002.01.1, 1002.02.1, 973.1, 1003.01.1, 1003.02.1, 1004.01.1, 1004.02.1, 974.1, 1005.01.1, 1005.02.1, 975.01.1, 975.02.1, 976.01.1, 976.02.1, 976.1, 976.2, 977.1, 977.2",,,,SPECCOND,No,Record Qualifier,
PC,22,PCMETHOD,text,40,Method of Test or Examination,,,"CRF Page 970.01.1, 1001.01.1, 970.02.1, 1001.02.1, 971.01.1, 1001.03.1, 971.02.1, 1001.04.1, 27.1, 972.1, 1002.01.1, 1002.02.1, 973.1, 1003.01.1, 1003.02.1, 1004.01.1, 1004.02.1, 974.1, 1005.01.1, 1005.02.1, 975.01.1, 975.02.1, 976.01.1, 976.02.1, 976.1, 976.2, 977.1, 977.2",,,,METHOD,No,Record Qualifier,
PC,23,PCFAST,text,40,Fasting Status,,,"CRF Page 970.01.1, 1001.01.1, 970.02.1, 1001.02.1, 971.01.1, 1001.03.1, 971.02.1, 1001.04.1, 27.1, 972.1, 1002.01.1, 1002.02.1, 973.1, 1003.01.1, 1003.02.1, 1004.01.1, 1004.02.1, 974.1, 1005.01.1, 1005.02.1, 975.01.1, 975.02.1, 976.01.1, 976.02.1, 976.1, 976.2, 977.1, 977.2",,,,NY,No,Record Qualifier,
PC,24,PCDRVFL,text,40,Derived Flag,,,Derived,,,PC.PCDRVFL,NY,Yes,Record Qualifier,
PC,25,PCLLOQ,integer,8,Lower Limit of Quantitation,,,Derived,,,PC.PCLLOQ,,Yes,Variable Qualifier,
PC,26,PCULOQ,integer,8,Upper Limit of Quantitation,,,Derived,,,PC.PCULOQ,,No,Variable Qualifier,
PC,27,VISITNUM,integer,8,Visit Number,4,,"CRF Page 970.01.1, 1001.01.1, 970.02.1, 1001.02.1, 971.01.1, 1001.03.1, 971.02.1, 1001.04.1, 27.1, 972.1, 1002.01.1, 1002.02.1, 973.1, 1003.01.1, 1003.02.1, 1004.01.1, 1004.02.1, 974.1, 1005.01.1, 1005.02.1, 975.01.1, 975.02.1, 976.01.1, 976.02.1, 976.1, 976.2, 977.1, 977.2",,,,,Yes,Timing,
PC,28,VISIT,text,40,Visit Name,,,"CRF Page 970.01.1, 1001.01.1, 970.02.1, 1001.02.1, 971.01.1, 1001.03.1, 971.02.1, 1001.04.1, 27.1, 972.1, 1002.01.1, 1002.02.1, 973.1, 1003.01.1, 1003.02.1, 1004.01.1, 1004.02.1, 974.1, 1005.01.1, 1005.02.1, 975.01.1, 975.02.1, 976.01.1, 976.02.1, 976.1, 976.2, 977.1, 977.2",,,,,Yes,Timing,
PC,29,VISITDY,integer,8,Planned Study Day of Visit,,,Derived,,,PC.VISITDY,,No,Timing,
PC,30,PCDTC,text,40,Date/Time of Specimen Collection,,,"CRF Page 970.01.1, 1001.01.1, 970.02.1, 1001.02.1, 971.01.1, 1001.03.1, 971.02.1, 1001.04.1, 27.1, 972.1, 1002.01.1, 1002.02.1, 973.1, 1003.01.1, 1003.02.1, 1004.01.1, 1004.02.1, 974.1, 1005.01.1, 1005.02.1, 975.01.1, 975.02.1, 976.01.1, 976.02.1, 976.1, 976.2, 977.1, 977.2",,,,ISO 8601,Yes,Timing,
PC,31,PCENDTC,text,40,End Date/Time of Specimen Collection,,,"CRF Page 970.01.1, 1001.01.1, 970.02.1, 1001.02.1, 971.01.1, 1001.03.1, 971.02.1, 1001.04.1, 27.1, 972.1, 1002.01.1, 1002.02.1, 973.1, 1003.01.1, 1003.02.1, 1004.01.1, 1004.02.1, 974.1, 1005.01.1, 1005.02.1, 975.01.1, 975.02.1, 976.01.1, 976.02.1, 976.1, 976.2, 977.1, 977.2",,,,ISO 8601,No,Timing,
PC,32,PCDY,integer,8,Actual Study Day of Specimen Collection,,,"CRF Page 970.01.1, 1001.01.1, 970.02.1, 1001.02.1, 971.01.1, 1001.03.1, 971.02.1, 1001.04.1, 27.1, 972.1, 1002.01.1, 1002.02.1, 973.1, 1003.01.1, 1003.02.1, 1004.01.1, 1004.02.1, 974.1, 1005.01.1, 1005.02.1, 975.01.1, 975.02.1, 976.01.1, 976.02.1, 976.1, 976.2, 977.1, 977.2",,,,,Yes,Timing,
PC,33,PCTPT,text,40,Planned Time Point Name,6,,"CRF Page 970.01.1, 1001.01.1, 970.02.1, 1001.02.1, 971.01.1, 1001.03.1, 971.02.1, 1001.04.1, 27.1, 972.1, 1002.01.1, 1002.02.1, 973.1, 1003.01.1, 1003.02.1, 1004.01.1, 1004.02.1, 974.1, 1005.01.1, 1005.02.1, 975.01.1, 975.02.1, 976.01.1, 976.02.1, 976.1, 976.2, 977.1, 977.2",,,,,Yes,Timing,
PC,34,PCTPTNUM,float,8,Planned Time Point Number,,,"CRF Page 970.01.1, 1001.01.1, 970.02.1, 1001.02.1, 971.01.1, 1001.03.1, 971.02.1, 1001.04.1, 27.1, 972.1, 1002.01.1, 1002.02.1, 973.1, 1003.01.1, 1003.02.1, 1004.01.1, 1004.02.1, 974.1, 1005.01.1, 1005.02.1, 975.01.1, 975.02.1, 976.01.1, 976.02.1, 976.1, 976.2, 977.1, 977.2",,,,,Yes,Timing,
PC,35,PCELTM,text,40,Planned Elapsed Time from Time Point Ref,,,"CRF Page 970.01.1, 1001.01.1, 970.02.1, 1001.02.1, 971.01.1, 1001.03.1, 971.02.1, 1001.04.1, 27.1, 972.1, 1002.01.1, 1002.02.1, 973.1, 1003.01.1, 1003.02.1, 1004.01.1, 1004.02.1, 974.1, 1005.01.1, 1005.02.1, 975.01.1, 975.02.1, 976.01.1, 976.02.1, 976.1, 976.2, 977.1, 977.2",,,,ISO 8601,No,Timing,
PC,36,PCTPTREF,text,40,Time Point Reference,5,,"CRF Page 970.01.1, 1001.01.1, 970.02.1, 1001.02.1, 971.01.1, 1001.03.1, 971.02.1, 1001.04.1, 27.1, 972.1, 1002.01.1, 1002.02.1, 973.1, 1003.01.1, 1003.02.1, 1004.01.1, 1004.02.1, 974.1, 1005.01.1, 1005.02.1, 975.01.1, 975.02.1, 976.01.1, 976.02.1, 976.1, 976.2, 977.1, 977.2",,,,,No,Timing,
PC,37,PCRFTDTC,text,40,Date/Time of Reference Point,,,"CRF Page 970.01.1, 1001.01.1, 970.02.1, 1001.02.1, 971.01.1, 1001.03.1, 971.02.1, 1001.04.1, 27.1, 972.1, 1002.01.1, 1002.02.1, 973.1, 1003.01.1, 1003.02.1, 1004.01.1, 1004.02.1, 974.1, 1005.01.1, 1005.02.1, 975.01.1, 975.02.1, 976.01.1, 976.02.1, 976.1, 976.2, 977.1, 977.2",,,,ISO 8601,No,Timing,
PC,38,PCEVLINT,text,40,Evaluation Interval,,,"CRF Page 970.01.1, 1001.01.1, 970.02.1, 1001.02.1, 971.01.1, 1001.03.1, 971.02.1, 1001.04.1, 27.1, 972.1, 1002.01.1, 1002.02.1, 973.1, 1003.01.1, 1003.02.1, 1004.01.1, 1004.02.1, 974.1, 1005.01.1, 1005.02.1, 975.01.1, 975.02.1, 976.01.1, 976.02.1, 976.1, 976.2, 977.1, 977.2",,,,ISO 8601,No,Timing,
,,,,,,,,,,,,,,,
PE,1,STUDYID,text,8,Study Identifier,1,,Protocol,,,,,Yes,Identifier,
PE,2,DOMAIN,text,2,Domain Abbreviation,,,Derived,,,SETDOMAIN,,Yes,Identifier,
PE,3,USUBJID,text,18,Unique Subject Identifier,2,,Derived,,,SETUSUBJID,,Yes,Identifier,
PE,4,PESEQ,integer,8,Sequence Number,,,Assigned,,,PE.PESEQ,,Yes,Identifier,
PE,5,PEGRPID,text,40,Group ID,,,"CRF Page 20.1, 20.2",,,,,No,Identifier,
PE,6,PEREFID,text,40,Specimen ID,,,"CRF Page 20.1, 20.2",,,,,No,Identifier,
PE,7,PESPID,text,40,Sponsor-Defined Identifier,,,"CRF Page 20.1, 20.2",,,,,Yes,Identifier,
PE,8,PETESTCD,text,8,Body System Examined Short Name,3,,Derived,,,PE.PETESTCD,,Yes,Topic,
PE,9,PETEST,text,40,Body System Examined,,,"CRF Page 20.1, 20.2",,,,,Yes,Synonym Qualifier,
PE,10,PEMODIFY,text,40,Modified Reported Term,,,"CRF Page 20.1, 20.2",,,,,No,Synonym Qualifier,
PE,11,PECAT,text,80,Category for Examination,,,"CRF Page 20.1, 20.2",,,,,Yes,Grouping Qualifier,
PE,12,PESCAT,text,40,Subcategory for Examination,,,"CRF Page 20.1, 20.2",,,,,No,Grouping Qualifier,
PE,13,PEBODSYS,text,80,Body System or Organ Class,,,Derived,,,PE.PEBODSYS,,No,Result Qualifier,
PE,14,PEORRES,text,40,Verbatim Examination Finding,,,"CRF Page 20.1, 20.2",,,,,Yes,Result Qualifier,
PE,15,PEORRESU,text,40,Original Units,,,"CRF Page 20.1, 20.2",,,,UNIT,No,Variable Qualifier,
PE,16,PESTRESC,text,40,Character Result/Finding in Standard Format,,,Derived,,,PE.PESTRESC,,Yes,Result Qualifier,
PE,17,PESTAT,text,8,Completion Status,,,"CRF Page 20.1, 20.2",,,,ND,No,Record Qualifier,
PE,18,PEREASND,text,40,Reason Not Examined,,,"CRF Page 20.1, 20.2",,,,,No,Record Qualifier,
PE,19,PELOC,text,40,Location of Physical Exam Finding,,,"CRF Page 20.1, 20.2",,,,LOC,No,Record Qualifier,
PE,20,PEMETHOD,text,40,Method of Test or Examination,,,"CRF Page 20.1, 20.2",,,,METHOD,Yes,Record Qualifier,
PE,21,PEEVAL,text,40,Evaluator,,,"CRF Page 20.1, 20.2",,,,EVAL,No,Record Qualifier,
PE,22,VISITNUM,float,8,Visit Number,4,,"CRF Page 20.1, 20.2",,,,,Yes,Identifier,
PE,23,VISIT,text,40,Visit Name,,,"CRF Page 20.1, 20.2",,,,,Yes,Identifier,
PE,24,VISITDY,integer,8,Planned Study Day of Visit,,,Derived,,,PE.VISITDY,,No,Identifier,
PE,25,PEDTC,date,16,Date/Time of Examination,,,"CRF Page 20.1, 20.2",,,,ISO 8601,Yes,Identifier,
PE,26,PEDY,integer,8,Study Day of Examination,,,Derived,,,PE.PEDY,,No,Identifier,
,,,,,,,,,,,,,,,
QS,1,STUDYID,text,8,Study Identifier,1,,Protocol,,,,,Yes,Identifier,
QS,2,DOMAIN,text,2,Domain Abbreviation,,,Derived,,,SETDOMAIN,,Yes,Identifier,
QS,3,USUBJID,text,18,Unique Subject Identifier,2,,Derived,,,SETUSUBJID,,Yes,Identifier,
QS,4,QSSEQ,integer,8,Sequence Number,,,Assigned,,,QS.QSSEQ,,Yes,Identifier,
QS,5,QSGRPID,text,40,Group ID,,,"CRF Page 9.1, 45.1, 69.1, 93.1, 117.1, 141.1, 813.1, 823.1, ",,,,,No,Identifier,
QS,6,QSSPID,text,40,Sponsor-Defined Identifier,,,"CRF Page 9.1, 45.1, 69.1, 93.1, 117.1, 141.1, 813.1, 823.1, ",,,,,No,Identifier,
QS,7,QSTESTCD,text,8,Question Short Name,4,,Derived,,,QS.QSTESTCD,QSTESTCD,Yes,Topic,
QS,8,QSTEST,text,40,Question Name,,,"CRF Page 9.1, 45.1, 69.1, 93.1, 117.1, 141.1, 813.1, 823.1, ",,,,QSTEST,Yes,Synonym Qualifier,
QS,9,QSCAT,text,80,Category of Question,3,,"CRF Page 9.1, 45.1, 69.1, 93.1, 117.1, 141.1, 813.1, 823.1, ",,,,QSCAT,Yes,Grouping Qualifier,
QS,10,QSSCAT,text,80,Subcategory for Question,,,"CRF Page 9.1, 45.1, 69.1, 93.1, 117.1, 141.1, 813.1, 823.1, ",,,,,No,Grouping Qualifier,
QS,11,QSORRES,text,40,Finding in Original Units,,,"CRF Page 9.1, 45.1, 69.1, 93.1, 117.1, 141.1, 813.1, 823.1, ",,,,INTP,Yes,Result Qualifier,
QS,12,QSORRESU,text,40,Original Units,,,"CRF Page 9.1, 45.1, 69.1, 93.1, 117.1, 141.1, 813.1, 823.1, ",,,,UNIT,Yes,Variable Qualifier,
QS,13,QSSTRESC,text,40,Character Result/Finding in Standard Format,,,Derived,,,QS.QSSTRESC,,Yes,Result Qualifier,
QS,14,QSSTRESN,float,8,Numeric Finding in Standard Units,,,Derived,,,QS.QSSTRESN,,Yes,Result Qualifier,
QS,15,QSSTRESU,text,40,Standard Units,,,"CRF Page 9.1, 45.1, 69.1, 93.1, 117.1, 141.1, 813.1, 823.1, ",,,,UNIT,Yes,Variable Qualifier,
QS,16,QSSTAT,text,8,Completion Status,,,"CRF Page 9.1, 45.1, 69.1, 93.1, 117.1, 141.1, 813.1, 823.1, ",,,,ND,Yes,Record Qualifier,
QS,17,QSREASND,text,40,Reason Not Performed,,,"CRF Page 9.1, 45.1, 69.1, 93.1, 117.1, 141.1, 813.1, 823.1, ",,,,,No,Record Qualifier,
QS,18,QSBLFL,text,1,Baseline Flag,,,"CRF Page 9.1, 45.1, 69.1, 93.1, 117.1, 141.1, 813.1, 823.1, ",,,,NY,Yes,Record Qualifier,
QS,19,QSDRVFL,text,1,Derived Flag,,,Derived,,,QS.QSDRVFL,NY,No,Record Qualifier,
QS,20,QSEVAL,text,40,Evaluator,,,"CRF Page 9.1, 45.1, 69.1, 93.1, 117.1, 141.1, 813.1, 823.1, ",,,,EVAL,No,Record Qualifier,
QS,21,VISITNUM,float,8,Visit Number,5,,"CRF Page 9.1, 45.1, 69.1, 93.1, 117.1, 141.1, 813.1, 823.1, ",,,,,Yes,Timing,
QS,22,VISIT,text,40,Visit Name,,,"CRF Page 9.1, 45.1, 69.1, 93.1, 117.1, 141.1, 813.1, 823.1, ",,,,,Yes,Timing,
QS,23,VISITDY,integer,8,Planned Study Day of Visit,,,Derived,,,QS.VISITDY,,No,Timing,
QS,24,QSDTC,date,16,Date/Time of Finding,,,"CRF Page 9.1, 45.1, 69.1, 93.1, 117.1, 141.1, 813.1, 823.1, ",,,,ISO 8601,Yes,Timing,
QS,25,QSDY,integer,8,Study Day of Finding,,,Derived,,,QS.QSDTC,,Yes,Timing,
QS,26,QSTPT,text,40,Planned Time Point Name,,,"CRF Page 9.1, 45.1, 69.1, 93.1, 117.1, 141.1, 813.1, 823.1, ",,,,,Yes,Timing,
QS,27,QSTPTNUM,float,8,Planned Time Point Number,7,,"CRF Page 9.1, 45.1, 69.1, 93.1, 117.1, 141.1, 813.1, 823.1, ",,,,,Yes,Timing,
QS,28,QSELTM,text,40,Planned Elapsed Time from Time Point Ref,,,"CRF Page 9.1, 45.1, 69.1, 93.1, 117.1, 141.1, 813.1, 823.1, ",,,,ISO 8601,No,Timing,
QS,29,QSTPTREF,text,40,Time Point Reference,6,,"CRF Page 9.1, 45.1, 69.1, 93.1, 117.1, 141.1, 813.1, 823.1, ",,,,,No,Timing,
QS,30,QSRFTDTC,date,16,Date/Time of Reference Time Point,,,"CRF Page 9.1, 45.1, 69.1, 93.1, 117.1, 141.1, 813.1, 823.1, ",,,,ISO 8601,No,Timing,
QS,31,QSEVLINT,text,40,Evaluation Interval,,,"CRF Page 9.1, 45.1, 69.1, 93.1, 117.1, 141.1, 813.1, 823.1, ",,,,ISO 8601,Yes,Timing,
,,,,,,,,,,,,,,,
SV,1,STUDYID,text,8,Study Identifier,1,,Protocol,,,,,Yes,Identifier,
SV,2,DOMAIN,text,2,Domain Abbreviation,,,Derived,,,SETDOMAIN,,Yes,Identifier,
SV,3,USUBJID,text,18,Unique Subject Identifier,2,,Derived,,,SETUSUBJID,,Yes,Identifier,
SV,4,VISITNUM,float,8,Visit Number,3,,"CRF Page 1.1, 22.1, 50.1, 74.1, 98.1, 122.1, 501.1, 560.1",,,,,Yes,Topic,
SV,5,VISIT,text,40,Visit Name,,,"CRF Page 1.1, 22.1, 50.1, 74.1, 98.1, 122.1, 501.1, 560.1",,,,,Yes,Synonym Qualifier,
SV,6,VISITDY,integer,8,Planned Study Day of Visit,,,Protocol,,,,,No,Timing,
SV,7,SVSTDTC,date,16,Start Date/Time of Visit,,,"CRF Page 1.1, 22.1, 50.1, 74.1, 98.1, 122.1, 501.1, 560.1",,,,ISO 8601,Yes,Timing,
SV,8,SVENDTC,date,16,End Date/Time of Visit,,,"CRF Page 1.1, 22.1, 50.1, 74.1, 98.1, 122.1, 501.1, 560.1",,,,ISO 8601,Yes,Timing,
SV,9,SVSTDY,integer,8,Study Day of Start of Visit,,,"CRF Page 1.1, 22.1, 50.1, 74.1, 98.1, 122.1, 501.1, 560.1",,,,,Yes,Timing,
SV,10,SVENDY,integer,8,Study Day of End of Visit,,,"CRF Page 1.1, 22.1, 50.1, 74.1, 98.1, 122.1, 501.1, 560.1",,,,,Yes,Timing,
SV,11,SVUPDES,text,40,Description of Unplanned Visit,,,"CRF Page 1.1, 22.1, 50.1, 74.1, 98.1, 122.1, 501.1, 560.1",,,,,Yes,Synonym Qualifier,
,,,,,,,,,,,,,,,
SE,1,STUDYID,text,8,Study Identifier,1,,Protocol,,,,,Yes,Identifier,
SE,2,DOMAIN,text,2,Domain Abbreviation,,,Derived,,,SETDOMAIN,,Yes,Identifier,
SE,3,USUBJID,text,18,Unique Subject Identifier,2,,Derived,,,SETUSUBJID,,Yes,Identifier,
SE,4,SESEQ,integer,8,Sequence Number,,,Assigned,,,,,Yes,Identifier,
SE,5,ETCD,text,8,Element Code,3,,Protocol,,,,,Yes,Synonym Qualifier,
SE,6,ELEMENT,text,200,Description of Element,,,Protocol,,,,,Yes,Synonym Qualifier,
SE,7,SESTDTC,date,16,Start Date/Time of Element,4,,Derived,,,SE.SESTDTC,,Yes,Timing,
SE,8,SEENDTC,date,16,End Date/Time of Element,,,Derived,,,SE.SEENDTC,,Yes,Timing,
SE,9,TAETORD,integer,8,Planned Order of Element within Arm,,,Protocol,,,,,Yes,Timing,
SE,10,EPOCH,text,40,Epoch,,,Protocol,,,,EPOCH,Yes,Timing,
SE,11,SEUPDES,text,40,Description of Unplanned Element,,,,,,,,Yes,Timing,
,,,,,,,,,,,,,,,
TU,1,STUDYID,text,8,Study Identifier,1,,Protocol,,,,,Yes,Identifier,
TU,2,DOMAIN,text,2,Domain Abbreviation,,,Derived,,,SETDOMAIN,,Yes,Identifier,
TU,3,USUBJID,text,18,Unique Subject Identifier,2,,Derived,,,SETUSUBJID,,Yes,Identifier,
TU,4,TUSEQ,integer,8,Sequence Number,,,Derived,,,TU.TUSEQ,,Yes,Identifier,
TU,5,TUGRPID,text,40,Group ID,,,"CRF Page 2.1, 3.1",,,,,No,Identifier,
TU,6,TUREFID,text,40,Specimen ID,,,"CRF Page 2.1, 3.1",,,,,No,Identifier,
TU,7,TUSPID,text,40,Sponsor-Defined Identifier,,,"CRF Page 2.1, 3.1",,,,,No,Identifier,
TU,8,TULINKID,text,40,Link ID,,,Assigned,,,,,Yes,Identifier,
TU,9,TUTESTCD,text,40,Tumor Identification Short Name,3,,Assigned,,,,TUTESTCD,Yes,Topic,
TU,10,TUTEST,text,40,Tumor Identification Test Name,,,"CRF Page 2.1, 3.1",,,,TUTEST,Yes,Synonym Qualifier,
TU,11,TUORRES,text,40,Tumor Identification Result,,,Assigned,,,,,Yes,Result Qualifier,
TU,12,TUSTRESC,text,40,Tumor Identification Result Std. Format,,,Assigned,,,,TUMIDENT,Yes,Record Qualifier,
TU,13,TUNAM,text,40,Vendor Name,,,"CRF Page 2.1, 3.1, 20.1, 20.2, 21.1, 21.2,  47.1, 47.2, 71.1, 71.2, 95.1, 95.2, 119.1., 119.2, 143.1, 143.2, 806.1, 806.2, 815.1, 815.2, 825.1, 825.2",,,,,No,Record Qualifier,
TU,14,TULOC,text,40,Location of the Tumor,,,"CRF Page 2.1, 3.1, 20.1, 20.2, 21.1, 21.2,  47.1, 47.2, 71.1, 71.2, 95.1, 95.2, 119.1., 119.2, 143.1, 143.2, 806.1, 806.2, 815.1, 815.2, 825.1, 825.2",,,,LOC,Yes,Record Qualifier,
TU,15,TULAT,text,13,Laterality,,,"CRF Page 2.1, 3.1, 20.1, 20.2, 21.1, 21.2,  47.1, 47.2, 71.1, 71.2, 95.1, 95.2, 119.1., 119.2, 143.1, 143.2, 806.1, 806.2, 815.1, 815.2, 825.1, 825.2",,,,LAT,Yes,Record Qualifier,
TU,16,TUDIR,text,40,Directionality,,,"CRF Page 2.1, 3.1, 20.1, 20.2, 21.1, 21.2,  47.1, 47.2, 71.1, 71.2, 95.1, 95.2, 119.1., 119.2, 143.1, 143.2, 806.1, 806.2, 815.1, 815.2, 825.1, 825.2",,,,DIR,Yes,Record Qualifier,
TU,17,TUPORTOT,text,40,Portion or Totality,,,"CRF Page 2.1, 3.1, 20.1, 20.2, 21.1, 21.2,  47.1, 47.2, 71.1, 71.2, 95.1, 95.2, 119.1., 119.2, 143.1, 143.2, 806.1, 806.2, 815.1, 815.2, 825.1, 825.2",,,,PORTOT,Yes,Record Qualifier,
TU,18,TUMETHOD,text,40,Method of Identification,,,Assigned,,,,METHOD,Yes,Record Qualifier,
TU,19,TUEVAL,text,40,Evaluator,,,Assigned,,,,EVAL,Yes,Record Qualifier,
TU,20,TUEVALID,text,40,Evaluator Identifier,,,Assigned,,,,MEDEVAL,No,Variable Qualifier,
TU,21,TUACPTFL,text,1,Accepted Record Flag,,,"CRF Page 2.1, 3.1, 20.1, 20.2, 21.1, 21.2,  47.1, 47.2, 71.1, 71.2, 95.1, 95.2, 119.1., 119.2, 143.1, 143.2, 806.1, 806.2, 815.1, 815.2, 825.1, 825.2",,,,NY,No,Record Qualifier,
TU,22,VISITNUM,float,8,Visit Number,4,,"CRF Page 2.1, 3.1, 20.1, 20.2, 21.1, 21.2,  47.1, 47.2, 71.1, 71.2, 95.1, 95.2, 119.1., 119.2, 143.1, 143.2, 806.1, 806.2, 815.1, 815.2, 825.1, 825.2",,,,,Yes,Timing,
TU,23,VISIT,text,40,Visit Name,5,,"CRF Page 2.1, 3.1, 20.1, 20.2, 21.1, 21.2,  47.1, 47.2, 71.1, 71.2, 95.1, 95.2, 119.1., 119.2, 143.1, 143.2, 806.1, 806.2, 815.1, 815.2, 825.1, 825.2",,,,,Yes,Timing,
TU,24,VISITDY,integer,8,Planned Study Day of Visit,,,"CRF Page 2.1, 3.1, 20.1, 20.2, 21.1, 21.2,  47.1, 47.2, 71.1, 71.2, 95.1, 95.2, 119.1., 119.2, 143.1, 143.2, 806.1, 806.2, 815.1, 815.2, 825.1, 825.2",,,,,No,Timing,
TU,25,EPOCH,text,40,Epoch,,,"CRF Page 2.1, 3.1, 20.1, 20.2, 21.1, 21.2,  47.1, 47.2, 71.1, 71.2, 95.1, 95.2, 119.1., 119.2, 143.1, 143.2, 806.1, 806.2, 815.1, 815.2, 825.1, 825.2",,,,,No,Timing,
TU,26,TUDTC,date,16,Date/Time of Tumor Identification,6,,"CRF Page 2.1, 3.1, 20.1, 20.2, 21.1, 21.2,  47.1, 47.2, 71.1, 71.2, 95.1, 95.2, 119.1., 119.2, 143.1, 143.2, 806.1, 806.2, 815.1, 815.2, 825.1, 825.2",,,,ISO 8601,Yes,Timing,
TU,27,TUDY,integer,8,Study Day of Tumor Identification,,,Derived,,,TU.TUDY,,Yes,Timing,
,,,,,,,,,,,,,,,
TR,1,STUDYID,text,8,Study Identifier,1,,Protocol,,,,,Yes,Identifier,
TR,2,DOMAIN,text,2,Domain Abbreviation,,,Derived,,,SETDOMAIN,,Yes,Identifier,
TR,3,USUBJID,text,18,Unique Subject Identifier,2,,Derived,,,SETUSUBJID,,Yes,Identifier,
TR,4,TRSEQ,integer,8,Sequence Number,3,,Derived,,,TR.TRSEQ,,Yes,Identifier,
TR,5,TRGRPID,text,40,Group ID,,,"CRF Page 2.1, 3.1, 20.1, 20.2, 21.1, 21.2,  47.1, 47.2, 71.1, 71.2, 95.1, 95.2, 119.1., 119.2, 143.1, 143.2, 806.1, 806.2, 815.1, 815.2, 825.1, 825.2",,,,,Yes,Identifier,
TR,6,TRREFID,text,40,Specimen ID,,,"CRF Page 2.1, 3.1, 20.1, 20.2, 21.1, 21.2,  47.1, 47.2, 71.1, 71.2, 95.1, 95.2, 119.1., 119.2, 143.1, 143.2, 806.1, 806.2, 815.1, 815.2, 825.1, 825.2",,,,,No,Identifier,
TR,7,TRSPID,text,40,Sponsor-Defined Identifier,,,"CRF Page 2.1, 3.1, 20.1, 20.2, 21.1, 21.2,  47.1, 47.2, 71.1, 71.2, 95.1, 95.2, 119.1., 119.2, 143.1, 143.2, 806.1, 806.2, 815.1, 815.2, 825.1, 825.2",,,,,No,Identifier,
TR,8,TRLNKID,text,40,Link ID,,,Assigned,,,,,Yes,Identifier,
TR,9,TRLNKGRP,text,40,Link Group,,,Assigned,,,,,Yes,Identifier,
TR,10,TRTESTCD,text,40,Tumor Assessment Short Name,4,,Derived,,,TR.TRTESTCD,TRTESTCD,Yes,Topic,
TR,11,TRTEST,text,40,Tumor Assessment Test Name,,,"CRF Page 2.1, 3.1, 20.1, 20.2, 21.1, 21.2,  47.1, 47.2, 71.1, 71.2, 95.1, 95.2, 119.1., 119.2, 143.1, 143.2, 806.1, 806.2, 815.1, 815.2, 825.1, 825.2",,,,TRTEST,Yes,Synonym Qualifier,
TR,12,TRORRES,text,40,Result or Finding in Original Units,,,"CRF Page 2.1, 3.1, 20.1, 20.2, 21.1, 21.2,  47.1, 47.2, 71.1, 71.2, 95.1, 95.2, 119.1., 119.2, 143.1, 143.2, 806.1, 806.2, 815.1, 815.2, 825.1, 825.2",,,,,Yes,Result Qualifier,
TR,13,TRORRESU,text,40,Original Units,,,"CRF Page 2.1, 3.1, 20.1, 20.2, 21.1, 21.2,  47.1, 47.2, 71.1, 71.2, 95.1, 95.2, 119.1., 119.2, 143.1, 143.2, 806.1, 806.2, 815.1, 815.2, 825.1, 825.2",,,,UNIT,Yes,Variable Qualifier,
TR,14,TRSTRESC,text,40,Character Result/Finding in Std Format,,,Derived,,,TR.TRSTRESC,,Yes,Record Qualifier,
TR,15,TRSTRESN,float,8,Numeric Result/Finding in Standard Units,,,Derived,,,TR.TRSTRESU,,Yes,Result Qualifier,
TR,16,TRSTRESU,text,40,Standard Units,,,Assigned,,,,UNIT,Yes,Variable Qualifier,
TR,17,TRSTAT,text,8,Completion Status,,,"CRF Page 2.1, 3.1, 20.1, 20.2, 21.1, 21.2,  47.1, 47.2, 71.1, 71.2, 95.1, 95.2, 119.1., 119.2, 143.1, 143.2, 806.1, 806.2, 815.1, 815.2, 825.1, 825.2",,,,ND,No,Result Qualifier,
TR,18,TRREASND,text,40,Reason Tumor Measurement Not Performed,,,"CRF Page 2.1, 3.1, 20.1, 20.2, 21.1, 21.2,  47.1, 47.2, 71.1, 71.2, 95.1, 95.2, 119.1., 119.2, 143.1, 143.2, 806.1, 806.2, 815.1, 815.2, 825.1, 825.2",,,,,No,Record Qualifier,
TR,19,TRNAM,text,40,Vendor Name,,,"CRF Page 2.1, 3.1, 20.1, 20.2, 21.1, 21.2,  47.1, 47.2, 71.1, 71.2, 95.1, 95.2, 119.1., 119.2, 143.1, 143.2, 806.1, 806.2, 815.1, 815.2, 825.1, 825.2",,,,,No,Record Qualifier,
TR,20,TRMETHOD,text,40,Method used to Identify the Tumor,,,"CRF Page 2.1, 3.1, 20.1, 20.2, 21.1, 21.2,  47.1, 47.2, 71.1, 71.2, 95.1, 95.2, 119.1., 119.2, 143.1, 143.2, 806.1, 806.2, 815.1, 815.2, 825.1, 825.2",,,,METHOD,Yes,Record Qualifier,
TR,21,TREVAL,text,40,Evaluator,,,"CRF Page 2.1, 3.1, 20.1, 20.2, 21.1, 21.2,  47.1, 47.2, 71.1, 71.2, 95.1, 95.2, 119.1., 119.2, 143.1, 143.2, 806.1, 806.2, 815.1, 815.2, 825.1, 825.2",,,,EVAL,Yes,Record Qualifier,
TR,22,TREVALID,text,40,Evaluator Identifier,,,"CRF Page 2.1, 3.1, 20.1, 20.2, 21.1, 21.2,  47.1, 47.2, 71.1, 71.2, 95.1, 95.2, 119.1., 119.2, 143.1, 143.2, 806.1, 806.2, 815.1, 815.2, 825.1, 825.2",,,,MEDEVAL,No,Variable Qualifier,
TR,23,TRACPTFL,text,1,Accepted Record Flag,,,"CRF Page 2.1, 3.1, 20.1, 20.2, 21.1, 21.2,  47.1, 47.2, 71.1, 71.2, 95.1, 95.2, 119.1., 119.2, 143.1, 143.2, 806.1, 806.2, 815.1, 815.2, 825.1, 825.2",,,,NY,No,Record Qualifier,
TR,24,VISITNUM,float,8,Visit Number,5,,"CRF Page 2.1, 3.1, 20.1, 20.2, 21.1, 21.2,  47.1, 47.2, 71.1, 71.2, 95.1, 95.2, 119.1., 119.2, 143.1, 143.2, 806.1, 806.2, 815.1, 815.2, 825.1, 825.2",,,,,Yes,Timing,
TR,25,VISIT,text,40,Visit Name,6,,"CRF Page 2.1, 3.1, 20.1, 20.2, 21.1, 21.2,  47.1, 47.2, 71.1, 71.2, 95.1, 95.2, 119.1., 119.2, 143.1, 143.2, 806.1, 806.2, 815.1, 815.2, 825.1, 825.2",,,,,Yes,Timing,
TR,26,VISITDY,integer,8,Planned Study Day of Visit,,,Derived,,,TR.VISITDY,,No,Timing,
TR,27,EPOCH,text,40,Epoch,,,Derived,,,TR.EPOCH,,No,Timing,
TR,28,TRDTC,date,16,Date/Time of Tumor Measurement,7,,"CRF Page 2.1, 3.1, 20.1, 20.2, 21.1, 21.2,  47.1, 47.2, 71.1, 71.2, 95.1, 95.2, 119.1., 119.2, 143.1, 143.2, 806.1, 806.2, 815.1, 815.2, 825.1, 825.2",,,,ISO 8601,Yes,Timing,
TR,29,TRDY,integer,8,Study Day of Tumor Measurement,,,Derived,,,TR.TRDY,,Yes,Timing,
,,,,,,,,,,,,,,,
RS,1,STUDYID,text,8,Study Identifier,1,,Protocol,,,,,Yes,Identifier,
RS,2,DOMAIN,text,2,Domain Abbreviation,,,Derived,,,SETDOMAIN,,Yes,Identifier,
RS,3,USUBJID,text,18,Unique Subject Identifier,2,,Derived,,,SETUSUBJID,,Yes,Identifier,
RS,4,RSSEQ,integer,8,Sequence Number,,,Derived,,,RS.RSSEQ,,Yes,Identifier,
RS,5,RSGRPID,text,40,Group ID,,,"CRF Page 2.1, 3.1, 20.1, 20.2, 21.1, 21.2,  47.1, 47.2, 71.1, 71.2, 95.1, 95.2, 119.1., 119.2, 143.1, 143.2, 806.1, 806.2, 815.1, 815.2, 825.1, 825.2",,,,,No,Identifier,
RS,6,RSREFID,text,40,Specimen ID,,,"CRF Page 2.1, 3.1, 20.1, 20.2, 21.1, 21.2,  47.1, 47.2, 71.1, 71.2, 95.1, 95.2, 119.1., 119.2, 143.1, 143.2, 806.1, 806.2, 815.1, 815.2, 825.1, 825.2",,,,,No,Identifier,
RS,7,RSSPID,text,40,Sponsor-Defined Identifier,,,"CRF Page 2.1, 3.1, 20.1, 20.2, 21.1, 21.2,  47.1, 47.2, 71.1, 71.2, 95.1, 95.2, 119.1., 119.2, 143.1, 143.2, 806.1, 806.2, 815.1, 815.2, 825.1, 825.2",,,,,No,Identifier,
RS,8,RSLNKID,text,40,Link ID,,,Assigned,,,,,No,Identifier,
RS,9,RSLNKGRP,text,40,Link Group,,,Assigned,,,,,Yes,Identifier,
RS,10,RSTESTCD,text,40,Response Assessment Short Name,3,,Derived,,,RS.RSTESTCD,RSTESTCD,Yes,Topic,
RS,11,RSTEST,text,40,Response Assessment Name,,,"CRF Page 2.1, 3.1, 20.1, 20.2, 21.1, 21.2,  47.1, 47.2, 71.1, 71.2, 95.1, 95.2, 119.1., 119.2, 143.1, 143.2, 806.1, 806.2, 815.1, 815.2, 825.1, 825.2",,,,RSTEST,Yes,Synonym Qualifier,
RS,12,RSCAT,text,80,Category for Response Assessment,,,"CRF Page 2.1, 3.1, 20.1, 20.2, 21.1, 21.2,  47.1, 47.2, 71.1, 71.2, 95.1, 95.2, 119.1., 119.2, 143.1, 143.2, 806.1, 806.2, 815.1, 815.2, 825.1, 825.2",,,,,Yes,Grouping Qualifier,
RS,13,RSORRES,text,40,Response Assessment Original Result,,,"CRF Page 2.1, 3.1, 20.1, 20.2, 21.1, 21.2,  47.1, 47.2, 71.1, 71.2, 95.1, 95.2, 119.1., 119.2, 143.1, 143.2, 806.1, 806.2, 815.1, 815.2, 825.1, 825.2",,,,,Yes,Result Qualifier,
RS,14,RSSTRESC,text,40,Response Assessment Result in Std Format,,,Derived,,,,,Yes,Record Qualifier,
RS,15,RSSTAT,text,40,Completion Status,,,"CRF Page 2.1, 3.1, 20.1, 20.2, 21.1, 21.2,  47.1, 47.2, 71.1, 71.2, 95.1, 95.2, 119.1., 119.2, 143.1, 143.2, 806.1, 806.2, 815.1, 815.2, 825.1, 825.2",,,,ND,No,Result Qualifier,
RS,16,RSREASND,text,40,Reason Response Assessment Not Performed,,,"CRF Page 2.1, 3.1, 20.1, 20.2, 21.1, 21.2,  47.1, 47.2, 71.1, 71.2, 95.1, 95.2, 119.1., 119.2, 143.1, 143.2, 806.1, 806.2, 815.1, 815.2, 825.1, 825.2",,,,,No,Record Qualifier,
RS,17,RSNAM,text,40,Vendor Name,,,"CRF Page 2.1, 3.1, 20.1, 20.2, 21.1, 21.2,  47.1, 47.2, 71.1, 71.2, 95.1, 95.2, 119.1., 119.2, 143.1, 143.2, 806.1, 806.2, 815.1, 815.2, 825.1, 825.2",,,,,No,Record Qualifier,
RS,18,RSEVAL,text,40,Evaluator,,,"CRF Page 2.1, 3.1, 20.1, 20.2, 21.1, 21.2,  47.1, 47.2, 71.1, 71.2, 95.1, 95.2, 119.1., 119.2, 143.1, 143.2, 806.1, 806.2, 815.1, 815.2, 825.1, 825.2",,,,EVAL,Yes,Record Qualifier,
RS,19,RSEVALID,text,40,Evaluator Identifier,,,"CRF Page 2.1, 3.1, 20.1, 20.2, 21.1, 21.2,  47.1, 47.2, 71.1, 71.2, 95.1, 95.2, 119.1., 119.2, 143.1, 143.2, 806.1, 806.2, 815.1, 815.2, 825.1, 825.2",,,,MEDEVAL,No,Variable Qualifier,
RS,20,RSACPTFL,text,40,Accepted Record Flag,,,"CRF Page 2.1, 3.1, 20.1, 20.2, 21.1, 21.2,  47.1, 47.2, 71.1, 71.2, 95.1, 95.2, 119.1., 119.2, 143.1, 143.2, 806.1, 806.2, 815.1, 815.2, 825.1, 825.2",,,,NY,No,Record Qualifier,
RS,21,VISITNUM,float,8,Visit Number,4,,"CRF Page 2.1, 3.1, 20.1, 20.2, 21.1, 21.2,  47.1, 47.2, 71.1, 71.2, 95.1, 95.2, 119.1., 119.2, 143.1, 143.2, 806.1, 806.2, 815.1, 815.2, 825.1, 825.2",,,,,Yes,Timing,
RS,22,VISIT,text,40,Visit Name,5,,"CRF Page 2.1, 3.1, 20.1, 20.2, 21.1, 21.2,  47.1, 47.2, 71.1, 71.2, 95.1, 95.2, 119.1., 119.2, 143.1, 143.2, 806.1, 806.2, 815.1, 815.2, 825.1, 825.2",,,,,Yes,Timing,
RS,23,VISITDY,integer,8,Planned Study Day of Visit,,,Derived,,,,,No,Timing,
RS,24,EPOCH,text,40,Epoch,,,Derived,,,,,No,Timing,
RS,25,RSDTC,text,16,Date/Time of Response Assessment,6,,"CRF Page 2.1, 3.1, 20.1, 20.2, 21.1, 21.2,  47.1, 47.2, 71.1, 71.2, 95.1, 95.2, 119.1., 119.2, 143.1, 143.2, 806.1, 806.2, 815.1, 815.2, 825.1, 825.2",,,,ISO 8601,Yes,Timing,
RS,26,RSDY,integer,8,Study Day of Response Assessment,,,Derived,,,,,Yes,Timing,
,,,,,,,,,,,,,,,
FAAE,1,STUDYID,text,8,Study Identifier,1,,Protocol,,,,,Yes,Identifier,
FAAE,2,DOMAIN,text,2,Domain Abbreviation,,,Derived,,,SETDOMAIN,,Yes,Identifier,
FAAE,3,USUBJID,text,18,Unique Subject Identifier,2,,Derived,,,SETUSUBJID,,Yes,Identifier,
FAAE,4,FASEQ,integer,8,Sequence Number,,,Assigned,,,FA.FASEQ,,Yes,Identifier,
FAAE,5,FAGRPID,text,40,Group ID,4,,"CRF Page 9.1, 45.1, 69.1, 93.1, 117.1, 141.1, 813.1, 823.1, ",,,,,Yes,Identifier,
FAAE,6,FASPID,text,40,Sponsor-Defined Identifier,,,"CRF Page 9.1, 45.1, 69.1, 93.1, 117.1, 141.1, 813.1, 823.1, ",,,,,Yes,Identifier,
FAAE,7,FATESTCD,text,8,Findings About Test Short Name,3,,Derived,,,FA.FATESTCD,FATESTCD,Yes,Topic,
FAAE,8,FATEST,text,40,Findings About Test Name,,,"CRF Page 9.1, 45.1, 69.1, 93.1, 117.1, 141.1, 813.1, 823.1, ",,,,FATEST,Yes,Synonym Qualifier,
FAAE,9,FAOBJ,text,40,Object of the Observation,,,"CRF Page 9.1, 45.1, 69.1, 93.1, 117.1, 141.1, 813.1, 823.1, ",,,,,Yes,Record Qualifier,
FAAE,10,FACAT,text,80,Category for Findings About,,,"CRF Page 9.1, 45.1, 69.1, 93.1, 117.1, 141.1, 813.1, 823.1, ",,,,,No,Grouping Qualifier,
FAAE,11,FASCAT,text,80,Subcategory for Findings About,,,"CRF Page 9.1, 45.1, 69.1, 93.1, 117.1, 141.1, 813.1, 823.1, ",,,,,No,Grouping Qualifier,
FAAE,12,FAORRES,text,40,Result or Finding in Original Units,,,"CRF Page 9.1, 45.1, 69.1, 93.1, 117.1, 141.1, 813.1, 823.1, ",,,,,Yes,Result Qualifier,
FAAE,13,FAORRESU,text,40,Original Units,,,"CRF Page 9.1, 45.1, 69.1, 93.1, 117.1, 141.1, 813.1, 823.1, ",,,,UNIT,Yes,Original Units,
FAAE,14,FASTRESC,text,40,Character Result/Finding in Std Format,,,Derived,,,FA.FASTRESC,,Yes,Result Qualifier,
FAAE,15,FASTRESN,float,8,Numeric Result/Finding in Standard Units,,,Derived,,,FA.FASTRESN,,Yes,Result Qualifier,
FAAE,16,FASTRESU,text,40,Standard Units,,,Assigned,,,FA.FASTRESU,UNIT,Yes,Variable Qualifier,
FAAE,17,FASTAT,text,8,Completion Status,,,"CRF Page 9.1, 45.1, 69.1, 93.1, 117.1, 141.1, 813.1, 823.1, ",,,,ND,No,Record Qualifier,
FAAE,18,FAREASND,text,40,Reason Not Performed,,,"CRF Page 9.1, 45.1, 69.1, 93.1, 117.1, 141.1, 813.1, 823.1, ",,,,,No,Record Qualifier,
FAAE,19,FALOC,text,40,Location of the Finding About,,,"CRF Page 9.1, 45.1, 69.1, 93.1, 117.1, 141.1, 813.1, 823.1, ",,,,LOC,No,Record Qualifier,
FAAE,20,FALAT,text,13,Laterality of Location of the Finding About,,,"CRF Page 9.1, 45.1, 69.1, 93.1, 117.1, 141.1, 813.1, 823.1, ",,,,LAT,No,Result Qualifier,
FAAE,21,FABLFL,text,1,Baseline Flag,,,Assigned,,,FA.FABLFL,NY,No,Record Qualifier,
FAAE,22,FAEVAL,text,40,Evaluator,,,"CRF Page 9.1, 45.1, 69.1, 93.1, 117.1, 141.1, 813.1, 823.1, ",,,,EVAL,No,Record Qualifier,
FAAE,23,VISITNUM,float,8,Visit Number,5,,"CRF Page 9.1, 45.1, 69.1, 93.1, 117.1, 141.1, 813.1, 823.1, ",,,,,Yes,Timing,
FAAE,24,VISIT,text,40,Visit Name,,,"CRF Page 9.1, 45.1, 69.1, 93.1, 117.1, 141.1, 813.1, 823.1, ",,,,,Yes,Timing,
FAAE,25,VISITDY,integer,8,Planned Study Day of Visit,,,Derived,,,FA.VISITDY,,No,Timing,
FAAE,26,FADTC,date,16,Date/Time of Collection,6,,"CRF Page 9.1, 45.1, 69.1, 93.1, 117.1, 141.1, 813.1, 823.1, ",,,,ISO 8601,No,Timing,
FAAE,27,FADY,integer,8,Study Day of Collection,,,Derived,,,FA.FADY,,No,Timing,
,,,,,,,,,,,,,,,
FACE,1,STUDYID,text,8,Study Identifier,1,,Protocol,,,,,Yes,Identifier,
FACE,2,DOMAIN,text,2,Domain Abbreviation,,,Derived,,,SETDOMAIN,,Yes,Identifier,
FACE,3,USUBJID,text,18,Unique Subject Identifier,2,,Derived,,,SETUSUBJID,,Yes,Identifier,
FACE,4,FASEQ,integer,8,Sequence Number,,,Assigned,,,FA.FASEQ,,Yes,Identifier,
FACE,5,FAGRPID,text,40,Group ID,,,CRF,,,,,No,Identifier,
FACE,6,FASPID,text,40,Sponsor-Defined Identifier,,,CRF,,,,,Yes,Identifier,
FACE,7,FATESTCD,text,8,Findings About Test Short Name,3,,Derived,,,FA.FATESTCD,FATESTCD,Yes,Topic,
FACE,8,FATEST,text,40,Findings About Test Name,,,CRF,,,,FATEST,Yes,Synonym Qualifier,
FACE,9,FAOBJ,text,40,Object of the Observation,,,CRF,,,,,Yes,Record Qualifier,
FACE,10,FACAT,text,80,Category for Findings About,,,CRF,,,,,No,Grouping Qualifier,
FACE,11,FASCAT,text,80,Subcategory for Findings About,,,CRF,,,,,No,Grouping Qualifier,
FACE,12,FAORRES,text,40,Result or Finding in Original Units,,,CRF,,,,,Yes,Result Qualifier,
FACE,13,FAORRESU,text,40,Original Units,,,CRF,,,,UNIT,Yes,Original Units,
FACE,14,FASTRESC,text,40,Character Result/Finding in Std Format,,,Derived,,,FA.FASTRESC,,Yes,Result Qualifier,
FACE,15,FASTRESN,float,8,Numeric Result/Finding in Standard Units,,,Derived,,,FA.FASTRESN,,Yes,Result Qualifier,
FACE,16,FASTRESU,text,40,Standard Units,,,Assigned,,,FA.FASTRESU,UNIT,Yes,Variable Qualifier,
FACE,17,FASTAT,text,8,Completion Status,,,CRF,,,,ND,No,Record Qualifier,
FACE,18,FAREASND,text,40,Reason Not Performed,,,CRF,,,,,No,Record Qualifier,
FACE,19,FALOC,text,40,Location of the Finding About,,,CRF,,,,LOC,No,Record Qualifier,
FACE,20,FALAT,text,13,Laterality of Location of the Finding About,,,CRF,,,,LAT,No,Result Qualifier,
FACE,21,FABLFL,text,1,Baseline Flag,,,Assigned,,,FA.FABLFL,NY,No,Record Qualifier,
FACE,22,FAEVAL,text,40,Evaluator,,,CRF,,,,EVAL,No,Record Qualifier,
FACE,23,VISITNUM,float,8,Visit Number,4,,CRF,,,,,Yes,Timing,
FACE,24,VISIT,text,40,Visit Name,,,CRF,,,,,Yes,Timing,
FACE,25,VISITDY,integer,8,Planned Study Day of Visit,,,Derived,,,FA.VISITDY,,No,Timing,
FACE,26,FADTC,date,16,Date/Time of Collection,5,,CRF,,,,ISO 8601,No,Timing,
FACE,27,FADY,integer,8,Study Day of Collection,,,Derived,,,FA.FADY,,No,Timing,
,,,,,,,,,,,,,,,
,,,,,,,,,,,,,,,
RELREC,1,STUDYID,text,8,Study Identifier,1,,Protocol,,,,,Yes,Identifier,
RELREC,2,RDOMAIN,text,2,Related Domain Abbreviation,2,,Derived,,,SETDOMAIN,,Yes,Identifier,
RELREC,3,USUBJID,text,18,Unique Subject Identifier,3,,Derived,,,SETUSUBJID,,Yes,Identifier,
RELREC,4,IDVAR,text,8,Identifying Variable,5,,CRF,,,,,Yes,Identifier,
RELREC,5,IDVARVAL,text,40,Identifying Variable Value,6,,Derived,,,,,Yes,Record Qualifier,
RELREC,6,RELTYPE,text,4,Relationship Type,,,Assigned,,,,,Yes,Record Qualifier,
RELREC,7,RELID,text,40,Relationship Identifier,4,,Assigned,,,,,Yes,Record Qualifier,
,,,,,,,,,,,,,,,
SUPPDM,1,STUDYID,text,8,Study Identifier,1,,Protocol,,,,,Yes,,
SUPPDM,2,RDOMAIN,text,2,Related Domain Abbreviation,2,,Derived,,,SETDOMAIN,,Yes,,
SUPPDM,3,USUBJID,text,18,Unique Subject Identifier,3,,Derived,,,SETUSUBJID,,Yes,,
SUPPDM,4,IDVAR,text,8,Identifying Variable,4,,Assigned,,,,,Yes,,
SUPPDM,5,IDVARVAL,text,40,Identifying Variable Value,5,,CRF,,,,,Yes,,
SUPPDM,6,QNAM,text,8,Qualifier Variable Name,6,,CRF,,,,,Yes,,
SUPPDM,7,QLABEL,text,40,Qualifier Variable Label,,,CRF,,,,,Yes,,
SUPPDM,8,QVAL,text,40,Data Value,,,CRF,,,,,Yes,,
SUPPDM,9,QORIG,text,200,Origin,,,Derived,,,SETNULL,,Yes,,
SUPPDM,10,QEVAL,text,40,Evaluator,,,Derived,,,SETNULL,,Yes,,
,,,,,,,,,,,,,,,
,,,,,,,,,,,,,,,
SUPP,1,STUDYID,text,8,Study Identifier,1,,Protocol,,,,,Yes,,
SUPP,2,RDOMAIN,text,2,Related Domain Abbreviation,2,,Derived,,,SETDOMAIN,,Yes,,
SUPP,3,USUBJID,text,18,Unique Subject Identifier,3,,Derived,,,SETUSUBJID,,Yes,,
SUPP,4,IDVAR,text,8,Identifying Variable,4,,Assigned,,,,,Yes,,
SUPP,5,IDVARVAL,text,40,Identifying Variable Value,5,,CRF,,,,,Yes,,
SUPP,6,QNAM,text,8,Qualifier Variable Name,6,,CRF,,,,,Yes,,
SUPP,7,QLABEL,text,100,Qualifier Variable Label,,,CRF,,,,,Yes,,
SUPP,8,QVAL,text,200,Data Value,,,CRF,,,,,Yes,,
SUPP,9,QORIG,text,200,Origin,,,CRF,,,,,Yes,,
SUPP,10,QEVAL,text,40,Evaluator,,,CRF,,,,,Yes,,
,,,,,,,,,,,,,,,
DD,1,STUDYID,text,8,Study Identifier,1,,Protocol,,,,,Yes,Identifier,
DD,2,DOMAIN,text,2,Domain Abbreviation,,,Derived,,,SETDOMAIN,,Yes,Identifier,
DD,3,USUBJID,text,18,Unique Subject Identifier,2,,Derived,,,SETUSUBJID,,Yes,Identifier,
DD,4,DDSEQ,integer,8,Sequence Number,,,Derived,,,DD.DDSEQ,,Yes,Identifier,
DD,5,DDTESTCD,text,40,Death Detail Assessment Short Name,3,,Assigned,,,DD.DDTESTCD,,Yes,Topic,
DD,6,DDTEST,text,40,Death Detail Assessment Name,,,Assigned,,,DD.DDTEST,,Yes,Synonym Qualifier,
DD,7,DDORRES,text,100,Result or Finding as Collected,,,CRF,,,,,Yes,Result Qualifier,
DD,8,DDSTRESC,text,100,Character Result/Finding in Std Format,,,Derived,,,,,Yes,Result Qualifier,
DD,9,DDRESCAT,text,100,Result Category,5,,CRF,,,,,No,Variable Qualifier,
DD,10,DDEVAL,text,100,Evaluator,,,CRF,,,,EVAL,No,Record Qualifier,
DD,11,DDDTC,text,16,Date/Time of Collection,4,,CRF,,,,ISO 8601,Yes,Timing,
DD,12,DDDY,integer,8,Study Day of Collection,,,CRF,,,,,No,Timing,
,,,,,,,,,,,,,,,
EC,1,STUDYID,text,8,Study Identifier,1,,Protocol,,,,,Yes,Identifier,
EC,2,DOMAIN,text,2,Domain Abbreviation,,,Derived,,,SETDOMAIN,,Yes,Identifier,
EC,3,USUBJID,text,18,Unique Subject Identifier,2,,Derived,,,SETUSUBJID,,Yes,Identifier,
EC,4,ECSEQ,integer,8,Sequence Number,3,,Derived,,,EC.ECSEQ,,Yes,Identifier,
EC,5,ECGRPID,text,40,Group ID,,,Assigned,,,,,No,Identifier,
EC,6,ECREFID,text,40,Reference ID,,,Assigned,,,,,No,Identifier,
EC,7,ECSPID,text,40,Sponsor-Defined Identifier,,,Assigned,,,,,No,Identifier,
EC,8,ECLNKID,text,40,Link ID,,,Assigned,,,,,No,Identifier,
EC,9,ECLNKGRP,text,40,Link Group ID,,,Assigned,,,,,No,Identifier,
EC,10,ECTRT,text,40,Name of Treatment,4,,CRF,,,,,Yes,Topic,
EC,11,ECMOOD,text,40,Mood,,,CRF,,,,,No,Record Qualifier,
EC,12,ECCAT,text,40,Category of Treatment,,,Assigned,,,,,No,Grouping Qualifier,
EC,13,ECSCAT,text,40,Subcategory of Treatment,,,Assigned,,,,,No,Grouping Qualifier,
EC,14,ECPRESP,text,1,Pre-Specified,,,CRF,,,,NY,No,Record Qualifier,
EC,15,ECOCCUR,text,1,Occurrence,,,CRF,,,,NY,No,Record Qualifier,
EC,16,ECDOSE,float,8,Dose,,,CRF,,,,,Yes,Record Qualifier,
EC,17,ECDOSTXT,text,40,Dose Description,,,CRF,,,,,No,Record Qualifier,
EC,18,ECDOSU,text,40,Dose Units,,,CRF,,,,UNIT,Yes,Variable Qualifier,
EC,19,ECDOSFRM,text,40,Dose Form,,,CRF,,,,FRM,Yes,Variable Qualifier,
EC,20,ECDOSFRQ,text,40,Dosing Frequency per Interval,,,CRF,,,,FREQ,No,Variable Qualifier,
EC,21,ECDOSTOT,text,40,Total Daily Dose,,,Derived,,,,,No,Record Qualifier,
EC,22,ECDOSRGM,text,40,Intended Dose Regimen,,,Protocol,,,,,No,Variable Qualifier,
EC,23,ECROUTE,text,40,Route of Administration,,,CRF,,,,ROUTE,No,Variable Qualifier,
EC,24,ECLOT,text,40,Lot Number,,,CRF,,,,,No,Record Qualifier,
EC,25,ECLOC,text,40,Location of Dose Administration,,,CRF,,,,LOC,No,Record Qualifier,
EC,26,ECLAT,text,40,Laterality,,,CRF,,,,LAT,No,Record Qualifier,
EC,27,ECDIR,text,40,Directionality,,,CRF,,,,DIR,No,Variable Qualifier,
EC,28,ECPORTOT,text,40,Portion or Totality,,,CRF,,,,PORTOT,No,Variable Qualifier,
EC,29,ECFAST,text,1,Fasting Status,,,CRF,,,,NY,No,Record Qualifier,
EC,30,ECPSTRG,float,8,Pharmaceutical Strength,,,CRF,,,,,No,Variable Qualifier,
EC,31,ECPSTRGU,text,40,Pharmaceutical Strength Units,,,CRF,,,,,No,Variable Qualifier,
EC,32,ECADJ,text,40,Reason for Dose Adjustment,,,CRF,,,,,No,Record Qualifier,
EC,33,EPOCH,text,40,Epoch,,,Derived,,,,EPOCH,Yes,Timing,
EC,34,ECSTDTC,text,16,Start Date/Time of Treatment,5,,CRF,,,,ISO 8601,Yes,Timing,
EC,35,ECENDTC,text,16,End Date/Time of Treatment,,,CRF,,,,ISO 8601,Yes,Timing,
EC,36,ECSTDY,integer,8,Study Day of Start of Treatment,,,Derived,,,,,Yes,Timing,
EC,37,ECENDY,integer,8,Study Day of End of Treatment,,,Derived,,,,,Yes,Timing,
EC,38,ECDUR,text,40,Duration of Treatment,,,Derived,,,,ISO 8601,Yes,Timing,
EC,39,ECTPT,text,40,Planned Time Point Name,,,CRF,,,,,Yes,Timing,
EC,40,ECTPTNUM,float,8,Planned Time Point Number,,,CRF,,,,,Yes,Timing,
EC,41,ECELTM,text,16,Planned Elapsed Time from Time Point Ref,,,CRF,,,,ISO 8601,No,Timing,
EC,42,ECTPTREF,text,40,Time Point Reference,,,CRF,,,,,No,Timing,
EC,43,ECRFTDTC,text,16,Date/Time of Reference Time Point,,,CRF,,,,ISO 8601,No,Timing,
,,,,,,,,,,,,,,,
SS,1,STUDYID,text,8,Study Identifier,1,,Protocol,,,,,Yes,Identifier,
SS,2,DOMAIN,text,2,Domain Abbreviation,,,Derived,,,SETDOMAIN,,Yes,Identifier,
SS,3,USUBJID,text,18,Unique Subject Identifier,2,,Derived,,,SETUSUBJID,,Yes,Identifier,
SS,4,SSSEQ,integer,8,Sequence Number,,,Assigned,,,SS.SSSEQ,,Yes,Identifier,
SS,5,SSGRPID,text,40,Group ID,,,Assigned,,,,,No,Identifier,
SS,6,SSSPID,text,40,Sponsor-Defined Identifier,,,Assigned,,,,,No,Identifier,
SS,7,SSTESTCD,text,8,Status Short Name,3,,Derived,,,,SSTESTCD,Yes,Topic,
SS,8,SSTEST,text,40,Status Name,,,CRF,,,,SSTEST,Yes,Synonym Qualifier,
SS,9,SSCAT,text,100,Category for Assessment,,,CRF,,,,,Yes,Grouping Qualifier,
SS,10,SSSCAT,text,100,Subcategory for Assessment,,,CRF,,,,,No,Grouping Qualifier,
SS,11,SSORRES,text,40,Result or Finding in Original Units,,,CRF,,,,,Yes,Result Qualifier,
SS,12,SSSTRESC,text,40,Character Result/Finding in Std Format,,,CRF,,,,SSSTRESC,Yes,Result Qualifier,
SS,13,SSSTAT,text,8,Completion Status,,,CRF,,,,ND,No,Record Qualifier,
SS,14,SSREASND,text,40,Reason Assessment Not Performed,,,CRF,,,,,No,Record Qualifier,
SS,15,SSEVAL,text,40,Evaluator,,,Derived,,,SS.SSDRVFL,NY,No,Record Qualifier,
SS,16,VISITNUM,float,8,Visit Number,4,,CRF,,,,,Yes,Timing,
SS,17,VISIT,text,40,Visit Name,,,CRF,,,,,Yes,Timing,
SS,18,VISITDY,integer,8,Planned Study Day of Visit,,,Derived,,,SS.VISITDY,,No,Timing,
SS,19,SSDTC,date,16,Date/Time of Assessment,,,CRF,,,,ISO 8601,Yes,Timing,
SS,20,SSDY,integer,8,Study Day of Assessment,,,CRF,,,SS.SSDY,,Yes,Timing,
,,,,,,,,,,,,,,,
PR,1,STUDYID,text,8,Study Identifier,1,,Protocol,,,,,Yes,Identifier,
PR,2,DOMAIN,text,2,Domain Abbreviation,,,Derived,,,SETDOMAIN,,Yes,Identifier,
PR,3,USUBJID,text,18,Unique Subject Identifier,2,,Derived,,,SETUSUBJID,,Yes,Identifier,
PR,4,PRSEQ,integer,8,Sequence Number,3,,Assigned,,,PR.PRSEQ,,Yes,Identifier,
PR,5,PRGRPID,text,40,Group ID,,,Assigned,,,,,No,Identifier,
PR,6,PRSPID,text,40,Sponsor-Defined Identifier,,,Assigned,,,,,No,Identifier,
PR,7,PRLNKID,text,40,Link ID,,,Assigned,,,,,No,Identifier,
PR,8,PRLNKGRP,text,40,Link Group ID,,,Assigned,,,,,No,Identifier,
PR,9,PRTRT,text,40,Reported Name of Procedure,,,Assigned,,,,,Yes,Topic,
PR,10,PRDECOD,text,40,Standardized Procedure Name,5,,CRF,,,,,No,Synonym Qualifier,
PR,11,PRCAT,text,40,Category,,,CRF,,,,,Yes,Grouping Qualifier,
PR,12,PRSCAT,text,40,Subcategory,,,CRF,,,,,Yes,Grouping Qualifier,
PR,13,PRPRESP,text,1,Pre-specified,,,CRF,,,,NY,Yes,Record Qualifier,
PR,14,PROCCUR,text,1,Occurrence,,,CRF,,,,NY,Yes,Record Qualifier,
PR,15,PRINDC,text,40,Indication,,,CRF,,,,,Yes,Record Qualifier,
PR,16,PRDOSE,float,8,Dose,,,CRF,,,,,Yes,Record Qualifier,
PR,17,PRDOSTXT,text,40,Dose Description,,,Derived,,,PR.PRDOSTXT,,No,Record Qualifier,
PR,18,PRDOSU,text,40,Dose Units,,,CRF,,,,UNIT,Yes,Variable Qualifier,
PR,19,PRDOSFRM,text,40,Dose Form,,,CRF,,,,FRM,No,Variable Qualifier,
PR,20,PRDOSFRQ,text,40,Dosing Frequency per Interval,,,CRF,,,,FRQ,No,Variable Qualifier,
PR,21,PRDOSRGM,text,40,Intended Dose Regimen,,,CRF,,,,,No,Variable Qualifier,
PR,22,PRROUTE,text,40,Route of Administration,,,CRF,,,,ROUTE,No,Variable Qualifier,
PR,23,PRLOC,text,40,Location of Procedure,,,CRF,,,,LOC,No,Record Qualifier,
PR,24,PRLAT,text,40,Laterality,,,CRF,,,,LAT,No,Variable Qualifier,
PR,25,PRDIR,text,40,Directionality,,,CRF,,,,DIR,No,Variable Qualifier,
PR,26,PRPORTOT,text,40,Portion or Totality,,,CRF,,,,PORTOT,No,Variable Qualifier,
PR,27,VISITNUM,float,8,Visit Number,4,,Assigned,,,,,Yes,Timing,
PR,28,VISIT,text,40,Visit Name,,,Assigned,,,,,Yes,Timing,
PR,29,VISITDY,integer,8,Planned Study Day of Visit,,,Protocol,,,,,No,Timing,
PR,30,PRSTDTC,text,16,Start Date/Time of Procedure,,,CRF,,,,ISO 8601,Yes,Timing,
PR,31,PRENDTC,text,16,End Date/Time of Procedure,,,CRF,,,,ISO 8601,Yes,Timing,
PR,32,PRSTDY,integer,8,Study Day of Start of Procedure,,,Derived,,,PR.PRSTDY,,No,Timing,
PR,33,PRENDY,integer,8,Study Day of End of Procedure,,,Derived,,,PR.PRENDY,,No,Timing,
PR,34,PRDUR,text,16,Duration of Procedure,,,CRF,,,,ISO 8601,No,Timing,
PR,35,PRTPT,text,40,Planned Time Point Name,,,Protocol,,,,,,Timing,
PR,36,PRTPTNUM,float,8,Planned Time Point Number,,,Assigned,,,,,,Timing,
PR,37,PRELTM,text,40,Planned Elapsed Time from Time Point Ref,,,CRF,,,,ISO 8601,,Timing,
PR,38,PRTPTREF,text,40,Time Point Reference,,,CRF,,,,,,Timing,
PR,39,PRRFTDTC,text,16,Date/Time of Reference Time Point,,,CRF,,,,ISO 8601,,Timing,
PR,40,PRSTRTPT,text,10,Start Relative to Reference Time Point,,,CRF,,,,"BEFORE, COINCIDENT, AFTER, U",,Timing,
PR,41,PRSTTPT,text,40,Start Reference Time Point,,,CRF,,,,,,Timing,
PR,42,PRENRTPT,text,10,End Relative to Reference Time Point,,,CRF,,,,"BEFORE, COINCIDENT, AFTER, U",,Timing,
PR,43,PRENTPT,text,40,End Reference Time Point,,,CRF,,,,,,Timing,
,,,,,,,,,,,,,,,
PP,1,,,,,,,,,,,,,,
PP,2,,,,,,,,,,,,,,
PP,3,,,,,,,,,,,,,,
PP,4,,,,,,,,,,,,,,
PP,5,,,,,,,,,,,,,,
PP,6,,,,,,,,,,,,,,
PP,7,,,,,,,,,,,,,,
PP,8,,,,,,,,,,,,,,
PP,9,,,,,,,,,,,,,,
PP,10,,,,,,,,,,,,,,
PP,11,,,,,,,,,,,,,,
PP,12,,,,,,,,,,,,,,
PP,13,,,,,,,,,,,,,,
PP,14,,,,,,,,,,,,,,
PP,15,,,,,,,,,,,,,,
PP,16,,,,,,,,,,,,,,
